Time,Acceleration X (m/s^2),Acceleration Y (m/s^2),Acceleration Z (m/s^2),Magnetometer X (uTesla), Magnetometer Y (uTesla)  , Magnetometer Z (uTesla),Gyroscope X (radians/s), Gyroscope Y (radians/s), Gyroscope Z (radians/s)
2019-06-09-14:27:32.983101,0.675,-0.352,10.136,11.700,39.200,29.700,-1.117,2.836,0.078
2019-06-09-14:27:32.998748,0.648,-0.294,10.148,10.100,39.700,29.100,-0.523,2.648,-0.008
2019-06-09-14:27:33.014222,0.670,-0.287,10.074,11.400,39.100,29.800,-1.164,2.836,0.039
2019-06-09-14:27:33.029671,0.665,-0.330,10.100,11.100,38.400,28.800,-1.062,3.055,0.352
2019-06-09-14:27:33.045124,0.696,-0.359,10.131,10.000,38.800,29.400,-0.875,2.695,0.008
2019-06-09-14:27:33.060574,0.687,-0.335,10.124,11.300,39.400,28.800,-0.656,2.758,0.086
2019-06-09-14:27:33.076015,0.677,-0.325,10.110,11.000,38.900,30.700,-0.680,2.711,0.031
2019-06-09-14:27:33.091457,0.651,-0.323,10.076,12.000,38.700,29.000,-0.922,2.930,0.133
2019-06-09-14:27:33.106882,0.694,-0.328,10.105,11.000,38.900,28.700,-0.969,2.578,0.242
2019-06-09-14:27:33.122361,0.689,-0.321,10.095,11.700,38.600,28.300,-0.703,2.664,0.156
2019-06-09-14:27:33.137810,0.682,-0.349,10.129,12.000,38.400,31.100,-1.414,2.750,0.055
2019-06-09-14:27:33.153292,0.680,-0.345,10.138,11.500,39.900,30.900,-1.141,2.758,0.156
2019-06-09-14:27:33.168748,0.677,-0.301,10.119,10.600,38.700,30.400,-0.969,2.930,0.242
2019-06-09-14:27:33.184179,0.658,-0.306,10.035,11.100,39.000,30.300,-0.992,2.734,-0.047
2019-06-09-14:27:33.199636,0.665,-0.309,10.074,11.200,38.000,28.600,-1.023,2.578,0.086
2019-06-09-14:27:33.215089,0.684,-0.357,10.119,10.600,38.100,30.500,-0.477,2.797,-0.055
2019-06-09-14:27:33.230527,0.682,-0.345,10.134,10.400,38.300,30.100,-0.633,2.812,0.172
2019-06-09-14:27:33.245989,0.663,-0.313,10.076,10.300,39.000,29.600,-0.852,2.727,0.062
2019-06-09-14:27:33.261435,0.653,-0.287,10.059,11.100,38.100,28.400,-0.664,2.836,0.234
2019-06-09-14:27:33.276896,0.696,-0.371,10.129,10.900,38.900,29.300,-0.773,2.906,0.039
2019-06-09-14:27:33.294429,0.680,-0.361,10.148,11.500,38.100,28.500,-1.078,2.836,0.133
2019-06-09-14:27:33.310005,0.692,-0.366,10.162,11.300,39.200,29.800,-1.141,2.719,-0.023
2019-06-09-14:27:33.325490,0.656,-0.299,10.067,10.700,38.700,28.800,-1.000,3.055,0.062
2019-06-09-14:27:33.340940,0.653,-0.297,10.083,11.600,38.700,30.000,-0.656,3.055,-0.008
2019-06-09-14:27:33.356427,0.706,-0.366,10.138,10.900,38.800,30.100,-0.922,2.688,0.109
2019-06-09-14:27:33.371911,0.701,-0.373,10.165,11.100,38.300,29.000,-0.812,2.945,0.188
2019-06-09-14:27:33.387471,0.644,-0.304,10.052,10.900,39.000,28.700,-0.539,2.789,0.211
2019-06-09-14:27:33.406738,0.670,-0.278,10.069,11.200,38.700,29.000,-0.977,3.016,0.078
2019-06-09-14:27:33.426078,0.644,-0.270,10.062,10.600,39.000,30.100,-0.992,2.906,0.125
2019-06-09-14:27:33.445465,0.651,-0.275,10.031,11.600,39.200,30.400,-0.922,2.828,-0.008
2019-06-09-14:27:33.464972,0.646,-0.273,10.055,11.500,38.900,29.700,-0.711,2.711,0.328
2019-06-09-14:27:33.484375,0.625,-0.275,10.038,11.600,38.700,29.700,-1.023,2.703,0.125
2019-06-09-14:27:33.503808,0.656,-0.304,10.074,10.500,38.800,29.700,-0.969,2.586,0.211
2019-06-09-14:27:33.523170,0.639,-0.275,10.021,11.200,39.300,29.600,-1.078,2.758,0.305
2019-06-09-14:27:33.542525,0.701,-0.275,10.086,11.200,39.400,30.000,-1.047,2.906,0.219
2019-06-09-14:27:33.561877,0.689,-0.368,10.155,12.300,38.700,30.200,-0.781,2.766,-0.031
2019-06-09-14:27:33.581321,0.706,-0.376,10.122,11.100,38.200,29.000,-0.656,2.789,0.055
2019-06-09-14:27:33.600755,0.689,-0.371,10.146,11.200,39.100,30.000,-0.633,2.945,0.102
2019-06-09-14:27:33.620116,0.682,-0.352,10.122,11.700,39.200,29.300,-0.773,2.875,0.172
2019-06-09-14:27:33.639606,0.699,-0.366,10.124,11.200,38.700,31.300,-0.680,2.539,-0.031
2019-06-09-14:27:33.658976,0.682,-0.354,10.107,10.400,39.900,30.900,-0.852,2.961,0.188
2019-06-09-14:27:33.678321,0.687,-0.352,10.129,10.300,39.600,30.200,-1.062,2.867,-0.094
2019-06-09-14:27:33.697828,0.699,-0.371,10.112,10.900,38.500,28.500,-1.211,2.758,0.016
2019-06-09-14:27:33.717215,0.689,-0.352,10.114,11.300,38.900,31.100,-0.789,3.016,0.375
2019-06-09-14:27:33.738367,0.677,-0.349,10.126,11.400,39.800,28.500,-0.617,2.750,0.062
2019-06-09-14:27:33.757902,0.687,-0.347,10.112,12.100,40.200,28.600,-0.641,2.922,0.148
2019-06-09-14:27:33.777260,0.675,-0.316,10.122,10.400,39.000,29.900,-0.883,3.078,-0.031
2019-06-09-14:27:33.796653,0.687,-0.330,10.093,12.000,39.200,29.800,-0.805,2.773,0.188
2019-06-09-14:27:33.816097,0.677,-0.328,10.119,11.300,39.400,32.300,-0.984,2.742,-0.023
2019-06-09-14:27:33.835456,0.660,-0.309,10.091,11.600,37.900,30.800,-0.797,2.695,0.008
2019-06-09-14:27:33.854805,0.694,-0.335,10.102,11.700,38.700,30.000,-1.117,2.820,0.125
2019-06-09-14:27:33.874229,0.665,-0.318,10.102,10.900,38.900,29.600,-0.711,2.984,0.125
2019-06-09-14:27:33.893606,0.668,-0.297,10.081,10.900,37.800,29.200,-0.320,3.023,-0.117
2019-06-09-14:27:33.913038,0.668,-0.316,10.071,11.100,38.600,29.500,-0.703,2.961,0.266
2019-06-09-14:27:33.932393,0.682,-0.352,10.122,11.200,38.800,31.700,-0.586,2.750,0.242
2019-06-09-14:27:33.951728,0.694,-0.366,10.134,11.300,39.500,30.300,-1.047,2.617,0.031
2019-06-09-14:27:33.971278,0.694,-0.359,10.117,11.200,39.200,30.000,-0.734,2.883,0.148
2019-06-09-14:27:33.990680,0.699,-0.383,10.143,11.300,38.400,28.900,-0.930,2.789,0.188
2019-06-09-14:27:34.010104,0.689,-0.371,10.172,11.400,39.700,29.900,-1.094,2.516,0.086
2019-06-09-14:27:34.029561,0.692,-0.361,10.150,11.300,38.500,28.800,-0.898,2.531,0.062
2019-06-09-14:27:34.048925,0.684,-0.376,10.150,11.000,38.800,29.300,-0.703,2.914,-0.023
2019-06-09-14:27:34.068282,0.696,-0.378,10.169,11.100,39.300,29.000,-0.484,2.836,0.125
2019-06-09-14:27:34.087716,0.680,-0.373,10.131,11.300,38.500,30.200,-0.852,2.922,0.156
2019-06-09-14:27:34.107625,0.692,-0.395,10.134,11.700,38.600,28.700,-0.562,2.734,-0.031
2019-06-09-14:27:34.127106,0.692,-0.390,10.148,10.700,38.700,29.900,-0.789,2.969,0.172
2019-06-09-14:27:34.146476,0.692,-0.397,10.129,9.800,38.200,28.700,-0.609,2.875,0.219
2019-06-09-14:27:34.165908,0.708,-0.380,10.162,11.000,39.100,30.300,-1.086,2.711,-0.164
2019-06-09-14:27:34.185258,0.701,-0.373,10.148,11.400,38.000,28.900,-0.828,2.758,0.195
2019-06-09-14:27:34.204627,0.696,-0.380,10.162,10.600,39.400,29.500,-1.094,2.820,0.039
2019-06-09-14:27:34.224137,0.699,-0.388,10.167,12.400,38.500,29.500,-1.000,2.672,0.125
2019-06-09-14:27:34.243516,0.711,-0.385,10.129,11.300,39.500,29.200,-0.555,2.828,-0.031
2019-06-09-14:27:34.262873,0.658,-0.301,10.055,11.000,39.000,28.700,-1.172,2.930,0.289
2019-06-09-14:27:34.282289,0.648,-0.290,10.074,12.200,38.300,29.700,-1.094,2.852,-0.008
2019-06-09-14:27:34.301687,0.653,-0.311,10.079,11.300,38.800,29.000,-1.164,2.766,-0.047
2019-06-09-14:27:34.321223,0.651,-0.301,10.079,10.800,38.700,29.000,-0.836,2.898,0.062
2019-06-09-14:27:34.340592,0.646,-0.294,10.076,11.300,38.800,29.800,-0.930,2.961,0.172
2019-06-09-14:27:34.359914,0.660,-0.306,10.076,11.100,39.200,30.900,-0.812,3.016,0.133
2019-06-09-14:27:34.379336,0.646,-0.294,10.081,12.000,38.800,31.300,-0.711,3.016,0.305
2019-06-09-14:27:34.398782,0.653,-0.292,10.088,11.200,38.900,30.300,-0.531,2.836,0.328
2019-06-09-14:27:34.418213,0.668,-0.321,10.088,10.900,39.600,29.500,-0.805,2.617,0.266
2019-06-09-14:27:34.437669,0.653,-0.313,10.102,10.800,39.200,30.000,-0.836,2.617,0.195
2019-06-09-14:27:34.457059,0.668,-0.316,10.095,11.000,38.700,30.100,-0.953,2.758,0.062
2019-06-09-14:27:34.476541,0.672,-0.333,10.119,11.400,38.700,29.600,-0.828,2.961,0.148
2019-06-09-14:27:34.499192,0.663,-0.337,10.105,11.300,38.700,28.200,-1.109,3.047,0.156
2019-06-09-14:27:34.518783,0.672,-0.335,10.100,10.700,38.400,28.200,-1.055,2.820,0.125
2019-06-09-14:27:34.538203,0.699,-0.357,10.124,10.700,39.100,29.900,-0.852,2.836,0.242
2019-06-09-14:27:34.557661,0.665,-0.359,10.136,11.600,39.300,31.100,-0.773,2.734,0.414
2019-06-09-14:27:34.577037,0.675,-0.342,10.129,10.800,40.200,29.500,-0.922,2.734,0.078
2019-06-09-14:27:34.596396,0.684,-0.349,10.098,11.900,38.100,29.200,-0.789,2.930,0.102
2019-06-09-14:27:34.615828,0.677,-0.345,10.148,11.500,39.300,29.800,-0.758,2.797,0.109
2019-06-09-14:27:34.635251,0.677,-0.364,10.146,11.000,39.200,28.400,-0.586,2.703,0.148
2019-06-09-14:27:34.654910,0.692,-0.378,10.141,12.200,39.900,29.300,-0.812,2.688,0.133
2019-06-09-14:27:34.674467,0.692,-0.349,10.129,10.700,40.400,28.300,-1.430,2.750,0.258
2019-06-09-14:27:34.693891,0.658,-0.378,10.143,11.700,38.800,29.000,-0.953,3.047,0.086
2019-06-09-14:27:34.713316,0.651,-0.285,10.062,10.500,39.900,28.000,-1.117,2.516,0.109
2019-06-09-14:27:34.732747,0.663,-0.294,10.057,11.600,38.700,29.200,-0.922,2.641,0.086
2019-06-09-14:27:34.752134,0.646,-0.290,10.076,11.900,38.300,30.100,-1.125,2.859,0.031
2019-06-09-14:27:34.771592,0.663,-0.301,10.071,11.600,39.300,29.900,-0.594,2.992,0.133
2019-06-09-14:27:34.790944,0.656,-0.292,10.071,10.900,39.400,29.300,-0.898,2.906,0.125
2019-06-09-14:27:34.810295,0.648,-0.273,10.045,10.700,39.400,28.500,-0.828,2.484,-0.070
2019-06-09-14:27:34.829707,0.646,-0.280,10.055,10.100,39.700,28.500,-0.688,2.734,0.102
2019-06-09-14:27:34.849082,0.646,-0.261,10.038,10.900,39.000,29.500,-0.180,2.875,0.211
2019-06-09-14:27:34.868446,0.639,-0.268,10.012,10.500,39.000,28.900,-0.875,2.922,0.211
2019-06-09-14:27:34.887865,0.656,-0.294,10.040,10.800,38.400,29.000,-0.594,2.773,0.039
2019-06-09-14:27:34.907291,0.651,-0.280,10.062,10.200,38.700,28.900,-0.984,3.102,0.078
2019-06-09-14:27:34.926662,0.644,-0.282,10.064,11.400,38.600,28.000,-0.547,2.836,0.109
2019-06-09-14:27:34.946093,0.663,-0.301,10.069,10.900,39.000,29.000,-0.672,2.648,-0.117
2019-06-09-14:27:34.965711,0.629,-0.273,10.069,11.100,38.800,29.200,-0.938,2.820,-0.055
2019-06-09-14:27:34.985127,0.658,-0.311,10.064,11.400,39.100,28.400,-0.992,2.750,0.156
2019-06-09-14:27:35.004475,0.634,-0.290,10.064,10.600,39.400,29.700,-0.977,3.078,-0.047
2019-06-09-14:27:35.023832,0.689,-0.364,10.138,11.000,38.900,30.300,-0.703,2.656,-0.023
2019-06-09-14:27:35.043233,0.706,-0.366,10.131,11.600,39.600,29.300,-0.547,2.617,0.062
2019-06-09-14:27:35.062592,0.703,-0.361,10.150,11.100,39.900,28.800,-0.562,2.922,0.219
2019-06-09-14:27:35.081977,0.692,-0.349,10.102,10.900,39.500,29.300,-0.617,2.859,0.086
2019-06-09-14:27:35.101464,0.711,-0.342,10.119,11.000,38.600,28.700,-0.883,2.539,0.055
2019-06-09-14:27:35.120815,0.677,-0.366,10.114,10.900,39.000,29.200,-0.836,2.703,0.031
2019-06-09-14:27:35.140194,0.689,-0.354,10.117,10.900,38.800,29.800,-0.531,2.789,-0.023
2019-06-09-14:27:35.159622,0.682,-0.337,10.126,11.500,38.600,30.100,-0.828,2.836,0.078
2019-06-09-14:27:35.178962,0.684,-0.328,10.117,11.300,39.100,30.500,-1.344,2.883,0.109
2019-06-09-14:27:35.198310,0.670,-0.321,10.105,11.800,39.300,30.300,-1.016,2.633,-0.094
2019-06-09-14:27:35.226806,0.684,-0.323,10.107,11.500,39.000,28.900,-0.727,2.453,0.328
2019-06-09-14:27:35.246366,0.665,-0.323,10.124,11.000,39.300,27.900,-0.977,2.578,0.172
2019-06-09-14:27:35.265820,0.694,-0.342,10.117,11.000,40.000,29.600,-0.969,2.625,-0.031
2019-06-09-14:27:35.285178,0.677,-0.364,10.107,10.800,40.100,29.500,-0.750,2.672,0.148
2019-06-09-14:27:35.307964,0.670,-0.337,10.112,12.000,38.600,28.800,-0.977,3.070,0.102
2019-06-09-14:27:35.327423,0.684,-0.357,10.124,11.100,39.200,29.000,-1.094,3.086,-0.047
2019-06-09-14:27:35.346865,0.684,-0.373,10.131,11.100,38.900,29.200,-0.656,2.961,0.148
2019-06-09-14:27:35.366229,0.682,-0.345,10.148,10.800,40.400,29.500,-0.984,2.883,-0.047
2019-06-09-14:27:35.385608,0.696,-0.378,10.148,10.500,39.300,29.700,-0.992,2.711,0.062
2019-06-09-14:27:35.404964,0.694,-0.366,10.141,12.000,39.300,29.300,-1.062,2.930,-0.047
2019-06-09-14:27:35.424325,0.646,-0.383,10.131,11.000,38.800,29.100,-0.727,2.672,-0.141
2019-06-09-14:27:35.444070,0.648,-0.290,10.035,11.400,38.000,30.000,-0.930,3.125,-0.117
2019-06-09-14:27:35.463607,0.639,-0.278,10.062,11.100,38.900,28.900,-1.070,2.805,-0.211
2019-06-09-14:27:35.483057,0.641,-0.278,10.071,10.600,39.100,28.700,-0.758,2.758,0.172
2019-06-09-14:27:35.502446,0.656,-0.273,10.064,11.800,38.700,30.600,-0.992,2.867,-0.117
2019-06-09-14:27:35.521810,0.656,-0.285,10.071,11.500,39.000,29.500,-0.781,2.812,0.148
2019-06-09-14:27:35.541376,0.644,-0.285,10.067,11.000,40.300,29.700,-1.195,2.734,0.062
2019-06-09-14:27:35.560792,0.648,-0.290,10.067,10.800,38.400,28.600,-0.984,2.586,-0.031
2019-06-09-14:27:35.580174,0.660,-0.285,10.076,11.600,39.300,30.200,-1.000,2.562,0.086
2019-06-09-14:27:35.599637,0.646,-0.280,10.062,11.200,38.100,28.500,-0.734,2.820,0.156
2019-06-09-14:27:35.619002,0.663,-0.282,10.076,11.800,39.500,29.100,-0.531,2.898,0.133
2019-06-09-14:27:35.638378,0.656,-0.287,10.083,11.200,38.300,28.900,-0.977,2.883,0.172
2019-06-09-14:27:35.657914,0.648,-0.287,10.088,11.500,39.300,29.100,-1.164,2.906,0.305
2019-06-09-14:27:35.677298,0.660,-0.299,10.057,11.100,38.600,28.600,-0.930,2.836,0.367
2019-06-09-14:27:35.699975,0.648,-0.297,10.088,11.700,38.800,29.700,-0.922,2.727,0.234
2019-06-09-14:27:35.719694,0.646,-0.313,10.088,12.300,38.100,28.200,-0.930,2.844,0.055
2019-06-09-14:27:35.739097,0.665,-0.313,10.083,11.300,39.100,28.300,-1.000,2.750,0.016
2019-06-09-14:27:35.758533,0.648,-0.313,10.081,11.900,39.000,28.200,-0.750,2.883,0.039
2019-06-09-14:27:35.777887,0.672,-0.316,10.091,12.000,38.000,29.700,-0.461,2.500,0.156
2019-06-09-14:27:35.797245,0.658,-0.323,10.091,12.200,39.500,29.300,-0.984,2.883,-0.070
2019-06-09-14:27:35.816594,0.663,-0.325,10.093,11.200,38.500,29.500,-0.984,2.820,-0.102
2019-06-09-14:27:35.836046,0.670,-0.340,10.102,10.800,38.800,29.400,-1.023,2.602,0.156
2019-06-09-14:27:35.855471,0.663,-0.352,10.105,11.700,38.800,28.700,-1.258,2.758,0.328
2019-06-09-14:27:35.874851,0.687,-0.354,10.105,10.900,38.800,30.300,-0.484,2.922,0.055
2019-06-09-14:27:35.894299,0.665,-0.311,10.110,10.600,39.000,30.500,-0.695,2.625,-0.008
2019-06-09-14:27:35.913673,0.684,-0.318,10.095,11.600,38.500,29.800,-0.633,2.586,0.039
2019-06-09-14:27:35.933038,0.677,-0.299,10.102,10.400,38.800,29.300,-1.164,2.727,0.305
2019-06-09-14:27:35.952474,0.680,-0.318,10.064,11.100,39.000,29.200,-1.188,2.625,0.039
2019-06-09-14:27:35.971985,0.660,-0.297,10.093,12.200,38.500,29.700,-0.812,2.844,0.086
2019-06-09-14:27:35.991500,0.670,-0.301,10.069,11.100,39.100,27.800,-0.898,2.852,-0.180
2019-06-09-14:27:36.012503,0.663,-0.290,10.105,12.300,38.000,29.200,-1.211,2.750,0.266
2019-06-09-14:27:36.031970,0.651,-0.287,10.076,11.200,38.800,28.400,-1.000,2.969,0.156
2019-06-09-14:27:36.051523,0.658,-0.287,10.081,11.600,37.700,29.600,-1.047,2.789,0.461
2019-06-09-14:27:36.070944,0.656,-0.290,10.052,11.500,38.300,28.900,-0.953,2.875,0.086
2019-06-09-14:27:36.090319,0.665,-0.273,10.040,11.000,39.100,30.100,-1.102,2.820,0.188
2019-06-09-14:27:36.109735,0.653,-0.290,10.069,11.100,38.900,29.600,-0.828,2.820,0.016
2019-06-09-14:27:36.129108,0.653,-0.290,10.064,11.100,39.500,30.800,-0.641,2.898,0.148
2019-06-09-14:27:36.148468,0.641,-0.285,10.055,10.900,38.500,30.400,-0.547,2.984,0.086
2019-06-09-14:27:36.167882,0.648,-0.278,10.057,12.100,38.700,29.500,-0.898,2.820,0.305
2019-06-09-14:27:36.187249,0.651,-0.270,10.074,11.100,38.800,29.300,-0.570,2.797,0.188
2019-06-09-14:27:36.206628,0.644,-0.278,10.050,11.500,38.500,27.800,-0.727,3.055,-0.117
2019-06-09-14:27:36.226068,0.665,-0.282,10.064,11.700,39.400,28.800,-1.023,2.898,0.156
2019-06-09-14:27:36.245430,0.653,-0.304,10.067,11.600,38.200,29.000,-0.812,2.906,0.211
2019-06-09-14:27:36.264842,0.696,-0.280,10.067,11.500,38.300,28.500,-0.898,2.586,0.062
2019-06-09-14:27:36.284277,0.677,-0.376,10.162,11.400,38.800,27.800,-0.945,2.898,0.039
2019-06-09-14:27:36.303654,0.706,-0.378,10.160,11.400,38.300,29.700,-0.906,2.727,0.102
2019-06-09-14:27:36.323030,0.701,-0.371,10.138,11.000,38.600,29.100,-1.008,2.758,-0.047
2019-06-09-14:27:36.342461,0.699,-0.366,10.129,12.000,38.200,30.200,-0.969,2.727,0.188
2019-06-09-14:27:36.361875,0.692,-0.359,10.148,11.300,38.600,29.600,-0.547,2.672,0.188
2019-06-09-14:27:36.381343,0.687,-0.376,10.134,11.800,38.900,28.600,-0.852,2.820,-0.008
2019-06-09-14:27:36.400689,0.682,-0.349,10.112,10.900,39.400,28.600,-0.930,3.008,0.156
2019-06-09-14:27:36.420019,0.687,-0.364,10.131,11.300,38.300,29.400,-0.789,2.969,0.102
2019-06-09-14:27:36.439476,0.675,-0.345,10.112,12.200,38.200,29.000,-0.555,3.117,0.188
2019-06-09-14:27:36.458933,0.696,-0.335,10.129,10.700,38.200,29.100,-1.188,2.953,-0.047
2019-06-09-14:27:36.478389,0.687,-0.335,10.129,11.600,38.900,29.100,-0.633,2.664,0.242
2019-06-09-14:27:36.498079,0.665,-0.342,10.093,11.500,38.700,27.800,-0.766,2.867,-0.125
2019-06-09-14:27:36.518497,0.668,-0.335,10.098,12.400,38.300,30.100,-1.023,2.812,0.078
2019-06-09-14:27:36.539249,0.675,-0.313,10.107,11.300,37.500,29.200,-0.867,3.094,0.258
2019-06-09-14:27:36.561156,0.682,-0.306,10.105,11.100,37.100,27.200,-0.852,2.695,-0.070
2019-06-09-14:27:36.580923,0.672,-0.330,10.112,11.800,38.900,29.700,-0.781,2.906,-0.078
2019-06-09-14:27:36.600482,0.677,-0.309,10.098,11.900,38.700,30.000,-0.836,2.992,0.109
2019-06-09-14:27:36.620022,0.670,-0.304,10.098,10.900,38.300,29.300,-1.172,2.727,0.062
2019-06-09-14:27:36.639668,0.644,-0.294,10.083,10.700,38.100,29.300,-1.219,2.922,0.258
2019-06-09-14:27:36.659151,0.648,-0.287,10.093,11.400,39.200,28.900,-0.711,2.703,0.016
2019-06-09-14:27:36.678667,0.651,-0.290,10.076,11.000,38.200,28.400,-0.836,2.930,0.125
2019-06-09-14:27:36.698116,0.660,-0.299,10.079,11.500,38.700,30.000,-0.953,2.984,0.156
2019-06-09-14:27:36.717640,0.636,-0.304,10.071,12.100,38.700,28.600,-0.422,2.797,0.109
2019-06-09-14:27:36.739046,0.663,-0.282,10.067,12.000,38.400,28.400,-0.586,2.844,-0.102
2019-06-09-14:27:36.758538,0.639,-0.287,10.074,11.000,39.100,28.100,-0.883,2.930,0.078
2019-06-09-14:27:36.778022,0.651,-0.282,10.083,10.700,39.200,27.000,-0.758,3.016,0.008
2019-06-09-14:27:36.797421,0.648,-0.285,10.064,12.500,38.700,29.400,-0.445,2.805,-0.125
2019-06-09-14:27:36.816807,0.627,-0.282,10.021,11.100,39.300,29.700,-1.016,2.844,0.055
2019-06-09-14:27:36.836214,0.641,-0.290,10.064,11.900,38.900,28.600,-0.781,2.734,-0.031
2019-06-09-14:27:36.855606,0.699,-0.278,10.076,11.300,38.900,30.100,-0.281,2.586,-0.023
2019-06-09-14:27:36.875138,0.692,-0.376,10.155,11.000,39.300,29.000,-0.609,2.812,0.289
2019-06-09-14:27:36.894574,0.694,-0.380,10.141,11.100,38.900,30.500,-0.539,2.727,0.398
2019-06-09-14:27:36.914441,0.696,-0.373,10.174,11.600,38.800,28.600,-0.875,2.625,0.219
2019-06-09-14:27:36.934177,0.703,-0.378,10.136,11.600,38.600,29.600,-0.930,2.750,0.148
2019-06-09-14:27:36.953752,0.692,-0.378,10.165,10.800,39.200,29.000,-0.617,2.758,0.156
2019-06-09-14:27:36.973309,0.708,-0.392,10.143,11.300,38.200,27.900,-0.586,2.914,-0.227
2019-06-09-14:27:36.992892,0.696,-0.373,10.148,11.000,38.600,28.700,-0.797,3.055,0.188
2019-06-09-14:27:37.012415,0.692,-0.366,10.153,10.500,39.200,29.600,-0.953,2.906,0.062
2019-06-09-14:27:37.031876,0.677,-0.371,10.155,10.900,38.700,28.200,-1.000,2.750,0.195
2019-06-09-14:27:37.051378,0.701,-0.368,10.136,11.500,38.300,28.300,-0.984,2.883,-0.094
2019-06-09-14:27:37.070811,0.701,-0.357,10.146,11.000,39.200,29.500,-1.438,2.797,0.312
2019-06-09-14:27:37.090300,0.694,-0.371,10.143,12.200,38.900,26.900,-0.891,2.656,-0.008
2019-06-09-14:27:37.109738,0.677,-0.354,10.126,11.800,38.700,28.500,-0.906,2.758,0.062
2019-06-09-14:27:37.129217,0.699,-0.354,10.098,11.600,38.800,28.900,-0.258,2.766,-0.211
2019-06-09-14:27:37.148630,0.677,-0.328,10.131,12.300,37.800,27.300,-0.836,2.836,0.133
2019-06-09-14:27:37.168039,0.689,-0.328,10.117,12.100,37.500,29.100,-0.484,2.906,0.039
2019-06-09-14:27:37.187503,0.687,-0.333,10.105,11.900,38.800,30.500,-0.516,3.016,-0.180
2019-06-09-14:27:37.206955,0.660,-0.321,10.126,11.000,38.900,27.900,-0.945,2.703,0.086
2019-06-09-14:27:37.226382,0.689,-0.309,10.093,11.500,38.400,29.200,-0.609,2.758,0.156
2019-06-09-14:27:37.245899,0.672,-0.330,10.098,11.300,38.700,28.300,-0.812,2.703,0.258
2019-06-09-14:27:37.265317,0.668,-0.342,10.114,11.400,40.000,28.300,-0.852,2.875,0.109
2019-06-09-14:27:37.284713,0.672,-0.340,10.129,11.400,38.400,27.900,-0.969,2.797,0.258
2019-06-09-14:27:37.304366,0.687,-0.361,10.102,11.900,38.700,29.400,-0.469,2.836,0.133
2019-06-09-14:27:37.323859,0.684,-0.342,10.138,12.500,39.500,28.800,-0.547,2.930,0.266
2019-06-09-14:27:37.343548,0.689,-0.361,10.141,11.700,39.600,29.700,-0.828,2.734,0.211
2019-06-09-14:27:37.363048,0.701,-0.368,10.150,12.400,39.200,27.500,-0.984,2.797,-0.008
2019-06-09-14:27:37.382577,0.687,-0.376,10.167,12.000,39.900,29.000,-1.023,2.648,0.055
2019-06-09-14:27:37.402133,0.687,-0.371,10.150,11.500,39.300,27.900,-0.586,2.922,0.078
2019-06-09-14:27:37.421660,0.699,-0.359,10.134,12.200,39.000,30.400,-0.875,2.844,0.328
2019-06-09-14:27:37.441264,0.692,-0.385,10.153,11.100,39.600,28.900,-0.305,2.734,0.086
2019-06-09-14:27:37.460768,0.682,-0.376,10.155,12.300,39.800,29.800,-0.516,3.016,0.148
2019-06-09-14:27:37.480255,0.699,-0.378,10.146,10.900,38.800,29.000,-0.594,2.969,0.039
2019-06-09-14:27:37.499785,0.689,-0.397,10.167,10.800,39.100,30.000,-0.812,3.031,0.367
2019-06-09-14:27:37.519229,0.711,-0.376,10.155,12.400,39.200,28.700,-0.656,3.000,-0.070
2019-06-09-14:27:37.538652,0.706,-0.376,10.160,11.900,39.100,28.400,-0.805,2.820,0.234
2019-06-09-14:27:37.558066,0.699,-0.397,10.138,11.600,38.200,30.700,-1.125,3.156,0.312
2019-06-09-14:27:37.577478,0.696,-0.368,10.155,12.500,39.100,28.000,-1.016,2.711,0.148
2019-06-09-14:27:37.596958,0.699,-0.376,10.150,11.800,37.900,31.300,-1.156,2.805,-0.031
2019-06-09-14:27:37.616570,0.646,-0.378,10.146,12.000,38.100,29.300,-1.031,2.945,0.133
2019-06-09-14:27:37.636156,0.651,-0.275,10.141,11.700,37.900,28.600,-1.141,2.648,0.125
2019-06-09-14:27:37.655631,0.651,-0.294,10.064,10.700,38.400,28.700,-1.367,2.680,-0.031
2019-06-09-14:27:37.675078,0.656,-0.282,10.083,12.000,39.900,27.300,-0.875,2.930,0.039
2019-06-09-14:27:37.694602,0.660,-0.292,10.079,11.200,38.900,28.900,-1.102,2.734,0.125
2019-06-09-14:27:37.714488,0.658,-0.299,10.067,11.100,38.000,28.700,-0.656,2.734,0.266
2019-06-09-14:27:37.734127,0.660,-0.304,10.067,11.700,39.200,29.600,-0.836,2.500,0.055
2019-06-09-14:27:37.753605,0.651,-0.297,10.071,10.600,38.400,28.700,-0.977,2.898,0.148
2019-06-09-14:27:37.773006,0.648,-0.301,10.098,11.500,38.200,29.300,-0.750,2.703,0.016
2019-06-09-14:27:37.792444,0.663,-0.297,10.112,11.400,39.400,27.700,-0.859,2.859,0.109
2019-06-09-14:27:37.811957,0.636,-0.311,10.112,11.700,38.900,29.300,-0.312,2.805,-0.141
2019-06-09-14:27:37.831483,0.687,-0.318,10.086,12.100,39.200,27.900,-0.688,2.727,0.062
2019-06-09-14:27:37.850915,0.658,-0.316,10.117,12.100,38.800,28.300,-0.680,2.867,-0.102
2019-06-09-14:27:37.870340,0.670,-0.323,10.110,11.700,38.800,29.100,-1.086,2.680,-0.055
2019-06-09-14:27:37.889764,0.677,-0.325,10.119,11.600,38.500,28.200,-0.781,2.789,0.258
2019-06-09-14:27:37.909352,0.672,-0.349,10.129,10.000,38.200,28.500,-0.945,2.672,-0.094
2019-06-09-14:27:37.928789,0.672,-0.337,10.105,12.200,39.000,28.700,-0.859,2.898,0.156
2019-06-09-14:27:37.948212,0.670,-0.357,10.100,11.200,39.100,28.100,-0.812,2.711,0.109
2019-06-09-14:27:37.967904,0.680,-0.347,10.112,11.800,38.500,29.800,-0.922,2.844,0.016
2019-06-09-14:27:37.987390,0.658,-0.371,10.124,11.200,38.500,29.100,-1.109,2.805,0.008
2019-06-09-14:27:38.006869,0.663,-0.352,10.129,12.200,39.400,27.800,-0.750,2.758,0.172
2019-06-09-14:27:38.026333,0.656,-0.294,10.136,11.900,39.200,27.300,-0.812,2.664,0.039
2019-06-09-14:27:38.045843,0.656,-0.297,10.059,11.300,39.500,28.600,-1.008,2.820,-0.211
2019-06-09-14:27:38.065277,0.670,-0.282,10.074,11.500,39.500,27.400,-1.148,2.750,0.039
2019-06-09-14:27:38.084673,0.670,-0.290,10.083,11.300,38.400,29.800,-1.297,2.672,0.156
2019-06-09-14:27:38.106788,0.668,-0.301,10.064,11.300,39.400,29.500,-0.594,2.898,0.352
2019-06-09-14:27:38.126392,0.653,-0.280,10.069,12.600,39.100,28.600,-1.102,2.500,0.016
2019-06-09-14:27:38.145915,0.646,-0.278,10.069,11.600,39.400,30.200,-0.547,2.875,0.242
2019-06-09-14:27:38.165418,0.658,-0.282,10.057,11.000,38.800,29.100,-0.812,2.820,0.391
2019-06-09-14:27:38.184839,0.651,-0.278,10.059,10.600,39.200,28.800,-0.992,2.695,-0.023
2019-06-09-14:27:38.204374,0.656,-0.292,10.067,11.300,39.700,29.200,-1.070,2.727,0.109
2019-06-09-14:27:38.225873,0.646,-0.285,10.064,10.000,39.400,30.000,-0.531,2.844,0.133
2019-06-09-14:27:38.245401,0.646,-0.299,10.040,11.200,39.100,29.700,-1.289,2.820,0.367
2019-06-09-14:27:38.264848,0.651,-0.282,10.062,11.400,40.000,30.100,-1.125,2.789,0.031
2019-06-09-14:27:38.284349,0.641,-0.278,10.062,11.400,38.500,28.900,-1.031,2.531,0.086
2019-06-09-14:27:38.303811,0.641,-0.290,10.081,11.600,39.700,27.700,-1.109,2.914,0.008
2019-06-09-14:27:38.323323,0.651,-0.280,10.081,11.400,38.900,29.400,-0.828,2.938,-0.008
2019-06-09-14:27:38.342745,0.651,-0.287,10.057,12.000,38.900,27.600,-0.758,2.648,0.055
2019-06-09-14:27:38.362307,0.639,-0.285,10.074,11.700,39.100,28.200,-1.172,2.883,0.078
2019-06-09-14:27:38.381759,0.653,-0.285,10.067,11.200,38.700,28.600,-1.023,2.758,0.102
2019-06-09-14:27:38.401262,0.651,-0.294,10.064,11.400,38.800,30.100,-1.055,2.773,0.188
2019-06-09-14:27:38.420752,0.656,-0.294,10.079,11.100,40.300,28.300,-1.031,2.906,0.039
2019-06-09-14:27:38.440181,0.658,-0.290,10.074,10.300,38.900,28.000,-0.625,2.883,-0.023
2019-06-09-14:27:38.459745,0.663,-0.304,10.071,11.300,40.000,29.300,-0.547,2.820,0.125
2019-06-09-14:27:38.479225,0.656,-0.318,10.105,11.500,39.300,28.900,-0.758,2.922,0.078
2019-06-09-14:27:38.498683,0.656,-0.313,10.086,12.700,39.800,30.300,-0.781,2.617,0.109
2019-06-09-14:27:38.518164,0.675,-0.311,10.105,11.500,38.800,29.800,-1.070,2.930,0.016
2019-06-09-14:27:38.537704,0.701,-0.328,10.110,11.500,39.000,30.500,-0.750,2.961,0.086
2019-06-09-14:27:38.557151,0.682,-0.342,10.091,12.000,39.300,28.600,-0.992,2.969,0.078
2019-06-09-14:27:38.576589,0.677,-0.345,10.117,11.400,38.600,28.800,-0.633,2.898,0.109
2019-06-09-14:27:38.596090,0.663,-0.333,10.122,11.800,39.400,28.900,-0.789,2.734,0.055
2019-06-09-14:27:38.615537,0.694,-0.316,10.105,12.000,40.200,28.800,-0.805,2.875,0.188
2019-06-09-14:27:38.635046,0.672,-0.335,10.079,11.400,40.100,28.900,-0.688,2.969,0.281
2019-06-09-14:27:38.654520,0.665,-0.313,10.088,10.900,38.700,29.200,-0.688,2.758,0.312
2019-06-09-14:27:38.674058,0.651,-0.311,10.083,12.500,38.900,30.800,-0.711,2.930,0.242
2019-06-09-14:27:38.693514,0.663,-0.321,10.088,12.500,39.800,27.700,-0.789,2.703,0.039
2019-06-09-14:27:38.712994,0.653,-0.294,10.093,11.700,39.300,27.800,-0.812,3.047,0.281
2019-06-09-14:27:38.732510,0.658,-0.309,10.088,11.700,39.200,29.000,-0.922,2.562,0.016
2019-06-09-14:27:38.751965,0.672,-0.299,10.050,11.300,38.800,28.400,-0.484,2.672,-0.023
2019-06-09-14:27:38.771412,0.653,-0.285,10.069,11.900,39.500,29.300,-1.516,2.961,0.328
2019-06-09-14:27:38.790838,0.658,-0.290,10.071,10.900,39.900,30.200,-0.891,2.914,-0.008
2019-06-09-14:27:38.810251,0.653,-0.301,10.069,12.200,38.900,29.200,-0.906,2.859,0.125
2019-06-09-14:27:38.829721,0.651,-0.287,10.074,10.800,37.800,29.100,-0.633,2.711,0.133
2019-06-09-14:27:38.849171,0.656,-0.285,10.055,11.900,39.900,28.400,-0.344,2.773,0.031
2019-06-09-14:27:38.868593,0.651,-0.297,10.052,11.400,38.200,29.200,-0.547,2.727,0.039
2019-06-09-14:27:38.887987,0.660,-0.268,10.079,11.100,39.100,30.100,-1.125,2.922,0.133
2019-06-09-14:27:38.910309,0.701,-0.366,10.050,12.000,38.800,29.000,-1.188,2.672,0.102
2019-06-09-14:27:38.929915,0.665,-0.273,10.059,11.600,39.100,29.600,-1.273,2.844,0.109
2019-06-09-14:27:38.949494,0.646,-0.282,10.071,10.900,38.600,29.800,-0.805,2.922,0.156
2019-06-09-14:27:38.969059,0.663,-0.285,10.057,10.900,38.800,30.800,-0.680,2.758,-0.094
2019-06-09-14:27:38.988606,0.665,-0.292,10.052,11.200,38.500,28.900,-0.844,2.781,0.008
2019-06-09-14:27:39.008150,0.639,-0.297,10.067,11.700,40.200,27.600,-0.969,2.562,0.219
2019-06-09-14:27:39.027754,0.706,-0.294,10.083,11.700,38.300,28.600,-0.562,2.477,0.086
2019-06-09-14:27:39.047217,0.701,-0.376,10.071,10.200,39.900,28.800,-0.773,2.797,0.211
2019-06-09-14:27:39.066677,0.682,-0.359,10.155,11.100,39.000,29.700,-0.703,2.664,0.172
2019-06-09-14:27:39.086116,0.692,-0.378,10.181,11.700,39.300,29.300,-0.898,2.906,0.156
2019-06-09-14:27:39.105527,0.692,-0.373,10.155,11.700,38.700,27.400,-0.805,2.812,0.219
2019-06-09-14:27:39.124948,0.692,-0.361,10.112,10.300,39.100,29.400,-0.953,2.898,0.031
2019-06-09-14:27:39.144443,0.687,-0.352,10.131,10.500,38.100,28.500,-1.102,2.820,0.148
2019-06-09-14:27:39.163857,0.684,-0.349,10.095,10.800,38.400,27.700,-0.828,3.016,0.008
2019-06-09-14:27:39.183278,0.677,-0.349,10.124,11.800,38.900,27.700,-0.812,2.641,0.102
2019-06-09-14:27:39.202707,0.675,-0.330,10.107,11.300,39.400,27.900,-0.906,2.664,0.039
2019-06-09-14:27:39.222140,0.687,-0.337,10.117,11.900,39.400,29.200,-0.773,2.773,0.062
2019-06-09-14:27:39.241721,0.675,-0.349,10.112,12.200,38.500,27.100,-0.766,3.008,0.062
2019-06-09-14:27:39.261278,0.672,-0.321,10.102,11.200,38.600,26.800,-0.898,2.789,0.109
2019-06-09-14:27:39.280786,0.658,-0.321,10.112,11.400,39.300,30.200,-0.891,2.930,-0.047
2019-06-09-14:27:39.300205,0.677,-0.313,10.095,11.100,38.400,30.000,-0.969,2.797,0.039
2019-06-09-14:27:39.320084,0.660,-0.309,10.083,10.700,38.200,28.500,-0.805,2.883,-0.102
2019-06-09-14:27:39.339717,0.670,-0.304,10.091,11.200,38.600,28.100,-0.758,2.625,0.062
2019-06-09-14:27:39.359160,0.665,-0.301,10.100,10.700,39.200,28.200,-1.203,2.672,-0.008
2019-06-09-14:27:39.378600,0.668,-0.280,10.067,11.000,38.100,28.600,-0.836,2.930,0.062
2019-06-09-14:27:39.398040,0.660,-0.306,10.067,11.100,38.600,27.400,-0.883,2.758,0.211
2019-06-09-14:27:39.417473,0.675,-0.366,10.079,11.500,37.900,29.500,-1.117,2.469,0.133
2019-06-09-14:27:39.436958,0.699,-0.349,10.134,11.800,39.000,30.500,-0.539,2.773,0.039
2019-06-09-14:27:39.456407,0.682,-0.359,10.126,11.000,39.100,27.700,-1.164,2.836,0.109
2019-06-09-14:27:39.476103,0.689,-0.378,10.165,11.800,40.100,28.400,-0.742,2.711,-0.078
2019-06-09-14:27:39.495592,0.701,-0.378,10.167,12.100,39.800,30.000,-0.875,2.812,0.039
2019-06-09-14:27:39.515061,0.708,-0.380,10.153,11.300,38.900,29.300,-0.719,2.992,0.062
2019-06-09-14:27:39.534483,0.708,-0.400,10.189,11.300,38.300,29.000,-0.875,2.930,0.125
2019-06-09-14:27:39.554086,0.699,-0.361,10.155,10.200,39.200,28.800,-0.969,2.703,0.062
2019-06-09-14:27:39.573526,0.711,-0.395,10.169,12.300,39.100,29.800,-0.945,2.688,0.305
2019-06-09-14:27:39.592949,0.715,-0.380,10.122,11.600,38.700,29.900,-0.758,2.898,0.031
2019-06-09-14:27:39.612426,0.699,-0.366,10.134,11.900,39.000,30.200,-0.625,2.625,-0.180
2019-06-09-14:27:39.631857,0.706,-0.378,10.165,10.700,38.900,28.200,-1.039,2.680,-0.078
2019-06-09-14:27:39.651456,0.723,-0.376,10.143,11.100,38.900,28.800,-1.055,2.930,0.148
2019-06-09-14:27:39.670901,0.703,-0.385,10.131,11.300,38.800,28.500,-0.719,2.828,-0.031
2019-06-09-14:27:39.690328,0.699,-0.373,10.158,12.000,38.200,28.300,-0.914,3.031,0.133
2019-06-09-14:27:39.709838,0.687,-0.383,10.136,11.500,38.300,29.400,-0.781,2.797,0.156
2019-06-09-14:27:39.731238,0.699,-0.371,10.141,11.200,37.600,28.500,-0.789,2.750,0.172
2019-06-09-14:27:39.750811,0.711,-0.366,10.134,11.900,39.000,27.900,-1.086,2.930,-0.008
2019-06-09-14:27:39.770267,0.687,-0.364,10.141,11.700,39.400,27.800,-0.945,2.492,0.219
2019-06-09-14:27:39.789695,0.692,-0.371,10.134,11.500,38.900,29.900,-1.125,2.797,0.211
2019-06-09-14:27:39.809089,0.708,-0.364,10.160,11.500,38.400,27.300,-0.758,2.758,0.055
2019-06-09-14:27:39.828480,0.656,-0.354,10.146,11.400,39.000,28.200,-0.594,2.773,0.109
2019-06-09-14:27:39.847930,0.658,-0.306,10.098,11.500,39.300,29.000,-0.930,2.711,0.219
2019-06-09-14:27:39.867375,0.672,-0.299,10.067,11.600,39.100,29.500,-0.945,2.812,0.133
2019-06-09-14:27:39.886819,0.675,-0.318,10.100,11.200,39.100,29.400,-0.703,2.812,0.195
2019-06-09-14:27:39.907286,0.670,-0.325,10.083,11.400,38.800,29.900,-0.641,2.836,0.328
2019-06-09-14:27:39.931303,0.663,-0.321,10.079,11.900,38.600,29.700,-0.547,2.797,0.133
2019-06-09-14:27:39.951449,0.675,-0.333,10.131,11.700,39.000,30.000,-0.727,2.820,0.062
2019-06-09-14:27:39.971054,0.670,-0.328,10.105,12.600,38.600,29.100,-0.594,2.820,-0.180
2019-06-09-14:27:39.990526,0.675,-0.323,10.114,11.400,38.800,30.500,-1.047,2.945,0.195
2019-06-09-14:27:40.009945,0.675,-0.311,10.098,11.800,38.800,29.100,-0.594,3.180,0.461
2019-06-09-14:27:40.029476,0.677,-0.304,10.093,11.500,39.300,29.800,-0.758,2.930,0.133
2019-06-09-14:27:40.048922,0.665,-0.304,10.095,12.200,39.200,28.800,-1.383,2.641,0.039
2019-06-09-14:27:40.068388,0.684,-0.347,10.067,11.200,39.200,31.300,-0.797,2.719,-0.023
2019-06-09-14:27:40.087858,0.680,-0.359,10.114,11.200,37.800,29.900,-1.016,2.602,0.086
2019-06-09-14:27:40.110267,0.687,-0.357,10.117,11.900,37.600,29.600,-0.547,2.922,0.062
2019-06-09-14:27:40.129967,0.653,-0.299,10.076,10.800,39.000,29.100,-0.656,2.672,-0.055
2019-06-09-14:27:40.149443,0.656,-0.292,10.079,11.600,37.900,29.200,-1.008,2.844,-0.023
2019-06-09-14:27:40.168889,0.687,-0.285,10.062,11.600,38.200,29.500,-0.898,2.930,0.062
2019-06-09-14:27:40.188319,0.699,-0.373,10.143,12.800,38.600,29.300,-0.539,2.984,0.102
2019-06-09-14:27:40.207929,0.708,-0.397,10.143,12.200,39.100,29.000,-0.656,2.875,0.258
2019-06-09-14:27:40.227319,0.699,-0.380,10.158,11.700,39.000,30.000,-0.656,2.820,0.016
2019-06-09-14:27:40.246680,0.699,-0.376,10.141,11.500,38.600,30.000,-0.883,2.773,0.031
2019-06-09-14:27:40.266081,0.718,-0.378,10.131,12.300,39.700,29.000,-0.953,2.875,0.328
2019-06-09-14:27:40.285442,0.696,-0.373,10.167,12.700,39.200,29.800,-1.047,2.734,0.148
2019-06-09-14:27:40.304823,0.696,-0.395,10.174,11.700,38.600,28.600,-0.188,2.805,-0.094
2019-06-09-14:27:40.324300,0.701,-0.395,10.150,11.600,38.300,29.200,-0.570,3.094,0.133
2019-06-09-14:27:40.343666,0.694,-0.383,10.146,12.900,39.000,29.600,-0.656,2.859,0.031
2019-06-09-14:27:40.363039,0.706,-0.371,10.162,11.600,38.200,28.800,-0.836,2.797,0.305
2019-06-09-14:27:40.382426,0.694,-0.395,10.153,12.400,39.400,29.900,-0.656,2.820,0.039
2019-06-09-14:27:40.401834,0.715,-0.380,10.143,12.000,38.000,29.300,-0.984,2.547,0.008
2019-06-09-14:27:40.421323,0.706,-0.388,10.148,11.500,38.900,29.100,-0.773,2.820,-0.211
2019-06-09-14:27:40.440741,0.687,-0.368,10.134,11.000,38.900,28.800,-0.617,2.930,0.219
2019-06-09-14:27:40.460229,0.696,-0.380,10.131,11.800,39.300,29.300,-0.969,2.625,-0.008
2019-06-09-14:27:40.479920,0.701,-0.388,10.153,11.700,38.300,29.600,-0.992,2.648,0.062
2019-06-09-14:27:40.499473,0.646,-0.359,10.126,11.700,38.200,28.400,-0.969,2.672,-0.070
2019-06-09-14:27:40.520684,0.687,-0.354,10.141,11.200,38.700,30.100,-0.539,2.844,0.258
2019-06-09-14:27:40.540149,0.703,-0.366,10.131,11.500,38.600,29.500,-0.859,2.734,-0.023
2019-06-09-14:27:40.559631,0.663,-0.337,10.138,11.500,39.700,28.300,-0.898,2.719,-0.008
2019-06-09-14:27:40.579073,0.653,-0.316,10.114,11.600,39.200,29.200,-0.484,2.758,0.109
2019-06-09-14:27:40.598434,0.658,-0.316,10.095,11.700,39.500,29.700,-1.234,2.734,0.195
2019-06-09-14:27:40.617876,0.651,-0.321,10.091,12.000,38.800,28.700,-0.875,2.734,0.188
2019-06-09-14:27:40.637232,0.672,-0.309,10.117,12.000,37.800,29.100,-0.836,2.906,0.242
2019-06-09-14:27:40.656608,0.668,-0.325,10.107,12.000,38.500,29.900,-0.828,2.844,0.305
2019-06-09-14:27:40.676118,0.672,-0.330,10.112,11.600,38.400,29.600,-0.750,2.766,-0.031
2019-06-09-14:27:40.695606,0.665,-0.352,10.122,11.200,38.100,30.000,-1.031,2.703,0.055
2019-06-09-14:27:40.714998,0.668,-0.347,10.131,11.800,39.100,29.400,-1.102,2.648,0.422
2019-06-09-14:27:40.734378,0.684,-0.349,10.134,11.800,39.000,28.500,-1.102,2.711,0.031
2019-06-09-14:27:40.753774,0.677,-0.340,10.126,12.400,39.200,28.800,-1.102,2.812,0.109
2019-06-09-14:27:40.773173,0.677,-0.342,10.107,11.700,38.700,29.300,-1.195,2.906,0.125
2019-06-09-14:27:40.792560,0.680,-0.371,10.119,11.600,39.600,29.100,-0.906,2.625,0.086
2019-06-09-14:27:40.811922,0.684,-0.366,10.126,11.500,38.200,28.700,-0.727,2.945,0.078
2019-06-09-14:27:40.831285,0.684,-0.368,10.143,10.800,39.800,29.000,-1.117,2.820,0.062
2019-06-09-14:27:40.850643,0.680,-0.354,10.143,11.600,39.300,29.400,-0.922,2.977,-0.094
2019-06-09-14:27:40.870007,0.670,-0.371,10.143,11.100,38.000,29.000,-1.391,2.922,0.258
2019-06-09-14:27:40.889490,0.644,-0.290,10.076,11.900,39.200,28.400,-1.148,2.586,0.172
2019-06-09-14:27:40.908883,0.658,-0.280,10.055,11.200,38.800,29.400,-0.812,2.758,0.195
2019-06-09-14:27:40.928244,0.658,-0.278,10.071,11.800,38.700,29.000,-0.688,2.883,0.133
2019-06-09-14:27:40.947692,0.658,-0.285,10.052,11.200,38.600,29.100,-0.891,3.016,0.148
2019-06-09-14:27:40.967265,0.656,-0.268,10.062,12.400,38.700,28.700,-0.711,2.734,0.031
2019-06-09-14:27:40.986758,0.641,-0.292,10.050,11.100,39.100,29.800,-0.672,2.969,0.008
2019-06-09-14:27:41.006147,0.641,-0.287,10.071,11.600,38.800,27.700,-0.344,2.688,0.039
2019-06-09-14:27:41.025872,0.636,-0.294,10.064,10.700,39.600,28.700,-0.961,2.719,-0.102
2019-06-09-14:27:41.045362,0.648,-0.278,10.052,11.200,38.800,28.800,-1.086,2.992,0.031
2019-06-09-14:27:41.064780,0.634,-0.270,10.074,12.000,38.600,27.700,-1.055,2.773,0.109
2019-06-09-14:27:41.084319,0.644,-0.282,10.086,11.000,39.200,30.100,-0.609,2.523,-0.188
2019-06-09-14:27:41.103712,0.653,-0.275,10.059,12.100,38.700,28.400,-0.922,2.961,0.148
2019-06-09-14:27:41.123155,0.632,-0.292,10.040,11.700,39.300,27.200,-0.984,2.625,-0.078
2019-06-09-14:27:41.142549,0.651,-0.290,10.069,11.000,38.700,29.200,-1.000,2.664,0.188
2019-06-09-14:27:41.161903,0.658,-0.285,10.095,11.300,38.700,29.500,-0.531,2.797,0.062
2019-06-09-14:27:41.181346,0.653,-0.287,10.047,12.100,38.600,28.800,-1.000,3.070,0.016
2019-06-09-14:27:41.200754,0.656,-0.309,10.069,11.200,38.400,29.300,-1.047,2.859,0.055
2019-06-09-14:27:41.222066,0.692,-0.364,10.153,11.300,39.200,30.600,-0.461,2.922,0.148
2019-06-09-14:27:41.241674,0.646,-0.299,10.088,11.000,39.400,29.500,-0.547,2.875,0.258
2019-06-09-14:27:41.261140,0.660,-0.309,10.057,12.200,39.000,28.900,-0.805,2.781,-0.055
2019-06-09-14:27:41.280500,0.692,-0.323,10.083,11.200,38.800,28.200,-1.188,2.805,0.008
2019-06-09-14:27:41.299897,0.684,-0.354,10.146,11.300,38.500,28.100,-0.734,2.711,0.086
2019-06-09-14:27:41.322315,0.663,-0.318,10.105,11.200,39.200,29.500,-0.828,2.961,0.125
2019-06-09-14:27:41.341777,0.672,-0.340,10.098,12.100,39.500,29.200,-0.625,3.070,0.195
2019-06-09-14:27:41.361203,0.677,-0.337,10.107,10.700,38.400,28.000,-0.688,2.992,0.078
2019-06-09-14:27:41.380575,0.672,-0.340,10.112,11.200,38.400,29.500,-0.898,2.797,0.125
2019-06-09-14:27:41.400017,0.672,-0.335,10.091,12.000,38.500,28.200,-0.789,2.922,0.242
2019-06-09-14:27:41.419463,0.675,-0.335,10.079,12.000,38.300,30.200,-0.789,2.859,0.016
2019-06-09-14:27:41.438956,0.665,-0.309,10.088,10.900,38.600,30.300,-0.938,2.883,-0.031
2019-06-09-14:27:41.458363,0.670,-0.301,10.095,11.500,37.900,28.500,-1.125,2.961,0.281
2019-06-09-14:27:41.477926,0.680,-0.309,10.110,10.700,38.700,28.600,-0.891,2.828,-0.125
2019-06-09-14:27:41.497393,0.663,-0.301,10.081,11.300,39.400,29.300,-0.812,2.945,0.195
2019-06-09-14:27:41.516776,0.660,-0.287,10.064,11.600,39.100,30.500,-0.930,2.984,0.039
2019-06-09-14:27:41.536135,0.653,-0.301,10.081,11.600,39.100,30.000,-0.852,2.883,0.219
2019-06-09-14:27:41.555487,0.668,-0.290,10.043,11.800,39.300,27.900,-0.992,2.711,0.172
2019-06-09-14:27:41.574841,0.665,-0.301,10.079,11.400,39.300,29.800,-0.781,2.844,0.055
2019-06-09-14:27:41.594338,0.636,-0.282,10.076,11.000,39.100,29.500,-0.859,2.703,0.086
2019-06-09-14:27:41.613688,0.665,-0.254,10.019,12.100,39.800,29.200,-1.086,2.930,-0.047
2019-06-09-14:27:41.633044,0.668,-0.297,10.074,10.100,39.600,29.200,-0.789,3.094,0.102
2019-06-09-14:27:41.652406,0.634,-0.290,10.071,12.000,38.900,29.600,-0.953,3.156,0.281
2019-06-09-14:27:41.671752,0.634,-0.290,10.050,11.400,39.700,27.500,-0.922,2.750,0.016
2019-06-09-14:27:41.691202,0.660,-0.263,10.064,12.000,38.800,29.100,-0.789,2.758,0.281
2019-06-09-14:27:41.711490,0.708,-0.275,10.067,10.900,39.100,28.200,-0.531,2.680,0.008
2019-06-09-14:27:41.731398,0.636,-0.278,10.059,11.100,38.500,28.000,-0.516,2.812,0.109
2019-06-09-14:27:41.750912,0.639,-0.297,10.086,10.600,39.700,28.800,-0.906,3.047,0.109
2019-06-09-14:27:41.770350,0.694,-0.385,10.067,10.900,38.500,28.300,-0.648,2.695,0.008
2019-06-09-14:27:41.789825,0.692,-0.368,10.136,11.500,39.700,30.100,-0.953,2.898,0.062
2019-06-09-14:27:41.809404,0.689,-0.388,10.134,11.000,38.700,27.800,-1.102,3.125,-0.023
2019-06-09-14:27:41.828852,0.701,-0.371,10.153,11.000,38.600,29.500,-0.352,2.844,0.242
2019-06-09-14:27:41.848276,0.703,-0.376,10.134,10.600,37.700,29.500,-0.531,2.859,0.055
2019-06-09-14:27:41.867778,0.699,-0.368,10.148,10.800,38.400,30.600,-0.930,2.516,0.172
2019-06-09-14:27:41.887209,0.706,-0.354,10.153,11.400,38.900,29.700,-0.656,2.859,0.234
2019-06-09-14:27:41.906743,0.694,-0.373,10.129,11.300,39.800,29.300,-1.094,2.859,0.031
2019-06-09-14:27:41.926181,0.694,-0.361,10.155,10.800,39.300,28.100,-0.609,2.602,0.281
2019-06-09-14:27:41.945914,0.684,-0.342,10.119,11.100,39.000,30.000,-1.367,2.812,0.102
2019-06-09-14:27:41.965511,0.696,-0.347,10.112,12.000,39.500,29.400,-0.992,2.562,0.328
2019-06-09-14:27:41.985029,0.701,-0.335,10.122,11.900,39.200,28.800,-0.828,2.898,0.031
2019-06-09-14:27:42.004561,0.682,-0.335,10.114,11.700,38.400,29.800,-1.117,2.922,0.086
2019-06-09-14:27:42.024087,0.675,-0.352,10.110,10.700,38.500,29.100,-0.484,2.883,-0.047
2019-06-09-14:27:42.043624,0.684,-0.340,10.107,11.300,39.200,27.700,-1.016,2.906,-0.125
2019-06-09-14:27:42.063049,0.670,-0.330,10.122,10.700,38.600,29.500,-1.031,2.727,0.102
2019-06-09-14:27:42.082478,0.665,-0.325,10.091,11.400,38.300,28.500,-0.836,2.945,0.055
2019-06-09-14:27:42.101907,0.675,-0.333,10.086,10.800,38.600,28.900,-0.891,3.211,0.086
2019-06-09-14:27:42.121375,0.672,-0.311,10.074,12.100,39.400,30.300,-0.945,2.922,0.258
2019-06-09-14:27:42.140788,0.672,-0.364,10.129,11.300,38.800,28.300,-0.766,2.539,-0.078
2019-06-09-14:27:42.160187,0.684,-0.337,10.126,11.300,38.900,29.000,-1.258,2.984,0.125
2019-06-09-14:27:42.179669,0.670,-0.357,10.153,11.000,40.000,30.100,-1.078,2.922,0.211
2019-06-09-14:27:42.199107,0.692,-0.354,10.126,11.400,38.700,28.500,-0.945,2.781,-0.008
2019-06-09-14:27:42.218590,0.689,-0.361,10.160,11.600,39.400,30.600,-1.000,3.016,0.211
2019-06-09-14:27:42.238009,0.584,-0.397,10.146,12.000,39.800,29.900,-0.688,2.516,0.109
2019-06-09-14:27:42.257422,0.811,-0.361,10.165,11.500,40.700,30.100,-0.508,2.633,-0.031
2019-06-09-14:27:42.276827,0.754,-0.287,10.079,11.200,39.800,29.100,-1.000,3.414,0.062
2019-06-09-14:27:42.296233,0.546,-0.488,10.253,11.500,38.900,29.100,-0.695,3.008,0.102
2019-06-09-14:27:42.315786,0.749,-0.357,10.043,10.900,39.000,28.200,-0.688,2.242,0.336
2019-06-09-14:27:42.335269,0.756,-0.318,10.186,11.600,39.500,28.600,-1.039,3.016,0.172
2019-06-09-14:27:42.354689,0.603,-0.380,10.162,11.600,39.900,29.100,-1.047,2.883,0.086
2019-06-09-14:27:42.374199,0.737,-0.424,10.102,12.100,38.900,28.600,-0.656,2.703,0.125
2019-06-09-14:27:42.393620,0.684,-0.333,10.203,11.300,38.700,29.900,-0.930,3.078,0.086
2019-06-09-14:27:42.413032,0.687,-0.359,10.153,11.500,38.500,29.500,-0.922,2.656,0.008
2019-06-09-14:27:42.432500,0.725,-0.412,10.074,10.700,39.000,28.900,-0.742,2.852,-0.055
2019-06-09-14:27:42.451928,0.648,-0.352,10.193,10.800,38.800,29.400,-0.695,3.078,0.109
2019-06-09-14:27:42.471464,0.617,-0.263,10.122,10.900,38.300,28.800,-0.805,2.836,0.016
2019-06-09-14:27:42.490918,0.682,-0.323,10.004,12.300,39.500,29.700,-0.922,2.961,0.266
2019-06-09-14:27:42.513036,0.648,-0.287,10.071,11.700,39.800,28.500,-0.594,3.188,0.281
2019-06-09-14:27:42.532945,0.670,-0.392,10.158,11.300,38.500,30.200,-1.289,2.492,0.172
2019-06-09-14:27:42.552441,0.727,-0.361,10.081,11.400,38.800,29.800,-0.945,2.578,0.258
2019-06-09-14:27:42.571874,0.668,-0.278,10.201,11.100,40.300,28.900,-0.812,2.844,0.102
2019-06-09-14:27:42.591417,0.608,-0.292,10.107,10.700,40.700,28.900,-0.680,2.508,-0.102
2019-06-09-14:27:42.610835,0.675,-0.306,10.028,11.100,41.300,29.400,-0.914,2.883,-0.023
2019-06-09-14:27:42.630328,0.665,-0.294,10.088,10.600,39.400,28.900,-0.992,2.844,0.125
2019-06-09-14:27:42.649762,0.644,-0.301,10.117,11.300,39.200,29.100,-0.969,2.758,0.078
2019-06-09-14:27:42.669201,0.663,-0.321,10.067,11.800,38.900,28.600,-0.773,2.711,0.312
2019-06-09-14:27:42.688614,0.639,-0.323,10.102,11.200,39.500,29.400,-0.586,2.898,0.172
2019-06-09-14:27:42.708057,0.634,-0.318,10.114,11.200,38.900,28.000,-1.188,2.414,0.234
2019-06-09-14:27:42.729545,0.737,-0.323,10.083,11.400,39.300,28.200,-0.414,2.812,0.258
2019-06-09-14:27:42.749055,0.692,-0.313,10.119,11.500,38.500,30.400,-0.641,2.922,0.281
2019-06-09-14:27:42.768491,0.584,-0.347,10.122,12.300,39.400,29.000,-0.562,2.773,0.031
2019-06-09-14:27:42.787918,0.730,-0.354,10.095,11.600,39.600,29.600,-0.883,2.945,0.172
2019-06-09-14:27:42.807313,0.699,-0.311,10.136,12.600,38.900,28.800,-1.148,3.016,0.086
2019-06-09-14:27:42.826802,0.567,-0.357,10.119,10.600,38.900,29.200,-1.188,2.453,0.211
2019-06-09-14:27:42.846272,0.747,-0.361,10.105,12.600,38.500,30.300,-0.562,2.750,0.242
2019-06-09-14:27:42.865693,0.636,-0.299,10.119,11.700,38.600,30.800,-0.688,3.133,0.125
2019-06-09-14:27:42.885113,0.670,-0.400,10.158,11.400,37.800,29.700,-1.281,2.484,-0.023
2019-06-09-14:27:42.904560,0.720,-0.373,10.105,11.300,38.900,28.900,-0.945,2.664,0.078
2019-06-09-14:27:42.924485,0.680,-0.337,10.172,11.000,38.500,29.200,-0.711,3.148,0.008
2019-06-09-14:27:42.944170,0.665,-0.383,10.153,11.200,38.900,29.500,-1.359,2.797,-0.094
2019-06-09-14:27:42.963784,0.730,-0.378,10.107,12.400,39.000,28.600,-1.016,2.453,0.305
2019-06-09-14:27:42.983269,0.689,-0.361,10.167,11.600,38.400,27.400,-0.648,3.055,0.219
2019-06-09-14:27:43.002713,0.636,-0.376,10.146,11.900,38.900,28.600,-0.898,2.812,0.031
2019-06-09-14:27:43.022161,0.675,-0.304,10.026,11.900,38.400,27.800,-0.461,2.875,0.234
2019-06-09-14:27:43.041752,0.636,-0.282,10.076,12.100,38.200,28.900,-0.750,2.836,0.109
2019-06-09-14:27:43.061289,0.644,-0.246,10.086,11.300,38.300,29.200,-1.000,3.047,0.156
2019-06-09-14:27:43.080753,0.646,-0.299,10.045,11.900,37.800,29.400,-0.688,2.648,0.102
2019-06-09-14:27:43.100192,0.651,-0.266,10.038,11.500,37.900,29.300,-1.148,2.836,0.031
2019-06-09-14:27:43.119699,0.646,-0.268,10.071,11.600,37.900,28.500,-0.805,2.930,0.148
2019-06-09-14:27:43.139182,0.663,-0.290,10.045,10.600,38.200,27.300,-0.641,3.000,-0.023
2019-06-09-14:27:43.158718,0.651,-0.278,10.059,11.400,37.800,29.100,-0.602,2.844,-0.234
2019-06-09-14:27:43.178163,0.636,-0.280,10.088,11.200,37.900,29.700,-1.180,2.633,-0.047
2019-06-09-14:27:43.197762,0.651,-0.280,10.045,11.100,38.900,28.400,-0.586,2.875,0.125
2019-06-09-14:27:43.217216,0.644,-0.280,10.055,10.900,38.300,27.700,-0.664,2.898,0.289
2019-06-09-14:27:43.236659,0.651,-0.273,10.055,11.300,38.700,28.000,-0.836,2.969,0.086
2019-06-09-14:27:43.256159,0.644,-0.294,10.026,11.700,38.500,28.100,-0.938,2.992,0.102
2019-06-09-14:27:43.275597,0.641,-0.297,10.062,11.900,37.800,28.300,-1.016,2.641,0.031
2019-06-09-14:27:43.295006,0.653,-0.290,10.100,11.300,38.700,29.400,-0.773,2.898,0.133
2019-06-09-14:27:43.314483,0.663,-0.311,10.081,12.000,38.500,26.800,-1.242,2.883,0.156
2019-06-09-14:27:43.333920,0.644,-0.285,10.059,12.100,38.000,28.500,-1.094,2.750,0.031
2019-06-09-14:27:43.353454,0.699,-0.311,10.088,11.500,38.000,27.700,-0.828,2.711,0.078
2019-06-09-14:27:43.372912,0.703,-0.376,10.114,12.000,39.900,28.400,-0.680,2.648,-0.117
2019-06-09-14:27:43.392412,0.682,-0.371,10.141,11.700,38.600,30.000,-0.750,2.516,0.102
2019-06-09-14:27:43.411836,0.694,-0.357,10.124,11.800,38.900,28.100,-1.055,2.539,0.148
2019-06-09-14:27:43.431314,0.696,-0.340,10.122,11.600,37.400,29.100,-0.953,2.984,0.125
2019-06-09-14:27:43.450800,0.675,-0.347,10.114,12.200,38.500,28.800,-0.922,2.734,-0.031
2019-06-09-14:27:43.470367,0.677,-0.333,10.110,11.500,38.500,29.100,-0.516,2.789,0.352
2019-06-09-14:27:43.489828,0.677,-0.342,10.105,12.200,38.600,28.300,-0.750,2.672,0.125
2019-06-09-14:27:43.509262,0.675,-0.328,10.105,11.800,39.100,29.700,-0.945,2.828,-0.094
2019-06-09-14:27:43.528688,0.663,-0.335,10.088,11.700,37.600,29.200,-0.727,2.555,0.367
2019-06-09-14:27:43.548113,0.677,-0.325,10.102,11.600,38.400,30.200,-0.953,3.070,0.148
2019-06-09-14:27:43.567692,0.680,-0.318,10.088,10.500,38.200,29.400,-0.789,2.789,0.133
2019-06-09-14:27:43.587125,0.677,-0.304,10.100,11.300,38.600,28.400,-0.703,2.883,0.188
2019-06-09-14:27:43.606540,0.660,-0.318,10.086,12.200,39.500,27.500,-0.812,2.875,0.102
2019-06-09-14:27:43.626051,0.670,-0.297,10.074,12.000,38.600,28.100,-1.016,2.898,0.102
2019-06-09-14:27:43.645482,0.675,-0.294,10.081,11.600,38.800,28.500,-0.750,2.820,0.008
2019-06-09-14:27:43.664969,0.663,-0.287,10.083,10.700,39.100,27.700,-0.930,3.008,0.148
2019-06-09-14:27:43.684406,0.641,-0.306,10.091,11.200,39.200,28.400,-0.742,2.891,0.008
2019-06-09-14:27:43.703856,0.713,-0.373,10.062,11.500,39.200,27.900,-0.727,2.883,-0.023
2019-06-09-14:27:43.725148,0.641,-0.301,10.083,11.400,38.100,28.700,-0.953,2.875,0.031
2019-06-09-14:27:43.744669,0.656,-0.270,10.071,11.500,38.700,27.700,-0.758,2.844,0.219
2019-06-09-14:27:43.764239,0.677,-0.354,10.079,11.700,38.700,28.800,-0.711,2.844,0.234
2019-06-09-14:27:43.783707,0.689,-0.390,10.169,11.900,38.400,28.700,-0.969,2.477,-0.203
2019-06-09-14:27:43.803135,0.732,-0.368,10.143,11.900,38.000,29.200,-0.797,2.906,-0.008
2019-06-09-14:27:43.822552,0.684,-0.380,10.186,11.400,38.200,29.200,-0.508,2.812,0.031
2019-06-09-14:27:43.841976,0.718,-0.364,10.129,12.100,38.500,30.000,-0.984,2.625,-0.055
2019-06-09-14:27:43.861598,0.696,-0.373,10.148,11.800,38.400,29.800,-0.805,2.836,0.062
2019-06-09-14:27:43.881292,0.703,-0.364,10.119,11.500,37.900,29.700,-0.727,2.906,0.148
2019-06-09-14:27:43.900791,0.696,-0.378,10.150,12.400,38.700,29.100,-0.930,2.750,0.188
2019-06-09-14:27:43.920226,0.699,-0.390,10.153,11.000,38.000,28.800,-0.727,2.477,-0.180
2019-06-09-14:27:43.939824,0.689,-0.378,10.158,11.500,38.700,30.200,-1.000,2.562,0.289
2019-06-09-14:27:43.959314,0.711,-0.380,10.141,10.300,38.700,29.400,-0.930,2.586,0.133
2019-06-09-14:27:43.978867,0.689,-0.380,10.153,11.800,37.500,28.900,-0.773,2.836,0.211
2019-06-09-14:27:43.998310,0.684,-0.378,10.136,10.700,37.600,29.000,-1.117,2.703,0.242
2019-06-09-14:27:44.017831,0.708,-0.368,10.141,12.000,38.500,29.000,-0.953,2.922,0.102
2019-06-09-14:27:44.037279,0.699,-0.368,10.105,12.100,39.100,29.400,-0.828,2.758,0.461
2019-06-09-14:27:44.056719,0.689,-0.378,10.129,12.200,38.700,27.600,-0.836,2.727,0.156
2019-06-09-14:27:44.076200,0.723,-0.366,10.131,12.600,38.600,29.400,-0.852,2.961,0.125
2019-06-09-14:27:44.095617,0.699,-0.364,10.136,12.200,37.700,26.500,-0.445,3.055,0.266
2019-06-09-14:27:44.117161,0.694,-0.347,10.119,12.200,37.800,27.900,-0.586,2.797,0.055
2019-06-09-14:27:44.136996,0.701,-0.361,10.131,12.800,38.100,29.700,-0.852,2.984,0.062
2019-06-09-14:27:44.156486,0.675,-0.349,10.153,11.100,37.900,30.000,-1.016,2.875,0.078
2019-06-09-14:27:44.176070,0.696,-0.347,10.114,12.200,37.800,28.300,-0.859,2.812,0.109
2019-06-09-14:27:44.195505,0.656,-0.357,10.131,12.100,37.800,29.200,-0.906,2.773,0.078
2019-06-09-14:27:44.217064,0.644,-0.321,10.124,11.600,39.100,28.700,-0.977,2.789,0.102
2019-06-09-14:27:44.236584,0.684,-0.328,10.112,11.200,38.200,28.300,-0.609,2.945,0.031
2019-06-09-14:27:44.256094,0.684,-0.340,10.110,11.600,37.400,28.800,-0.977,2.875,0.133
2019-06-09-14:27:44.275576,0.684,-0.323,10.083,12.100,38.600,28.100,-0.820,2.883,0.008
2019-06-09-14:27:44.294992,0.663,-0.342,10.086,12.200,38.400,27.500,-0.758,3.039,0.008
2019-06-09-14:27:44.314483,0.682,-0.349,10.107,11.500,37.800,28.500,-1.312,2.836,0.016
2019-06-09-14:27:44.333920,0.644,-0.368,10.136,12.700,39.100,28.000,-0.609,2.711,0.133
2019-06-09-14:27:44.353364,0.663,-0.357,10.122,12.700,38.100,28.900,-1.086,2.734,-0.148
2019-06-09-14:27:44.372866,0.809,-0.311,10.122,11.400,38.600,28.500,-0.703,2.992,0.219
2019-06-09-14:27:44.392408,0.610,-0.357,10.148,11.000,39.000,30.400,-1.023,3.297,0.180
2019-06-09-14:27:44.411872,0.601,-0.445,10.155,11.500,39.000,29.000,-0.523,2.211,0.031
2019-06-09-14:27:44.431387,0.739,-0.328,10.088,12.100,38.700,28.500,-0.703,2.703,0.055
2019-06-09-14:27:44.450819,0.730,-0.402,10.236,13.200,38.400,29.100,-0.867,2.797,-0.055
2019-06-09-14:27:44.470413,0.847,-0.246,9.995,11.400,37.500,30.200,-0.539,2.805,-0.023
2019-06-09-14:27:44.489971,0.457,-0.462,10.215,11.300,38.400,28.300,-1.086,3.414,0.273
2019-06-09-14:27:44.509510,0.543,-0.318,10.016,11.900,38.400,28.800,-0.578,2.164,-0.031
2019-06-09-14:27:44.528953,0.948,-0.249,10.004,10.700,37.700,29.200,-0.797,3.070,0.219
2019-06-09-14:27:44.548380,0.555,-0.376,10.196,11.000,38.600,27.900,-1.000,3.445,0.289
2019-06-09-14:27:44.567898,0.589,-0.467,10.141,11.900,38.500,30.000,-1.273,2.492,0.102
2019-06-09-14:27:44.587385,0.818,-0.352,10.129,11.900,38.700,29.400,-0.484,2.758,0.133
2019-06-09-14:27:44.606804,0.718,-0.337,10.222,12.600,38.800,28.000,-0.961,3.414,0.227
2019-06-09-14:27:44.626229,0.672,-0.445,10.105,12.200,38.600,27.600,-1.023,2.750,0.039
2019-06-09-14:27:44.645680,0.627,-0.402,10.158,11.600,38.000,29.000,-0.523,3.016,0.289
2019-06-09-14:27:44.665125,0.622,-0.256,10.107,11.800,37.700,29.300,-1.055,2.820,0.188
2019-06-09-14:27:44.684601,0.625,-0.263,10.062,12.700,39.300,29.400,-1.094,2.844,0.172
2019-06-09-14:27:44.704145,0.656,-0.306,10.028,12.200,37.800,28.100,-1.234,3.148,-0.070
2019-06-09-14:27:44.723579,0.627,-0.239,10.076,10.700,38.400,28.400,-1.023,3.219,-0.180
2019-06-09-14:27:44.743027,0.622,-0.306,10.131,11.800,38.200,29.600,-1.273,2.406,0.156
2019-06-09-14:27:44.762448,0.682,-0.340,10.016,12.500,38.200,28.100,-0.617,2.820,0.289
2019-06-09-14:27:44.781868,0.660,-0.266,10.093,11.400,39.100,28.900,-0.266,2.812,0.078
2019-06-09-14:27:44.801429,0.634,-0.292,10.098,11.300,39.400,28.900,-0.945,2.477,0.031
2019-06-09-14:27:44.822157,0.634,-0.340,10.019,11.200,38.200,29.500,-0.609,2.906,0.258
2019-06-09-14:27:44.849227,0.677,-0.282,10.122,12.400,38.200,27.400,-0.898,2.781,-0.188
2019-06-09-14:27:44.869183,0.668,-0.366,10.134,11.700,38.000,27.800,-1.133,2.953,-0.008
2019-06-09-14:27:44.888742,0.646,-0.388,10.122,12.000,38.900,29.800,-0.828,2.859,0.266
2019-06-09-14:27:44.908344,0.715,-0.299,10.122,12.000,37.800,27.700,-0.930,2.648,0.055
2019-06-09-14:27:44.928316,0.703,-0.321,10.107,11.100,38.300,28.900,-1.047,2.820,0.055
2019-06-09-14:27:44.948004,0.636,-0.364,10.107,11.000,38.300,28.000,-0.812,2.898,0.062
2019-06-09-14:27:44.967774,0.665,-0.304,10.129,11.000,39.000,28.700,-1.000,2.875,0.336
2019-06-09-14:27:44.987285,0.737,-0.306,10.095,12.400,37.900,28.100,-1.211,2.758,-0.023
2019-06-09-14:27:45.006808,0.651,-0.333,10.069,10.900,37.700,28.400,-0.859,2.898,0.062
2019-06-09-14:27:45.026290,0.639,-0.318,10.102,11.700,38.800,28.000,-0.828,2.664,0.367
2019-06-09-14:27:45.045883,0.713,-0.347,10.069,12.200,38.400,29.400,-0.797,2.969,-0.102
2019-06-09-14:27:45.065403,0.723,-0.357,10.105,12.600,38.900,28.200,-0.758,2.727,0.438
2019-06-09-14:27:45.084862,0.651,-0.376,10.162,12.500,38.800,29.000,-0.688,2.750,0.086
2019-06-09-14:27:45.104381,0.668,-0.378,10.131,11.400,38.400,28.800,-0.664,2.664,0.109
2019-06-09-14:27:45.123818,0.756,-0.342,10.136,12.100,39.500,28.900,-0.531,2.859,0.016
2019-06-09-14:27:45.143248,0.682,-0.349,10.134,11.500,37.900,28.100,-0.656,2.852,-0.078
2019-06-09-14:27:45.162679,0.651,-0.433,10.174,11.000,38.500,29.600,-1.023,2.516,0.125
2019-06-09-14:27:45.182111,0.756,-0.342,10.093,12.400,38.700,30.000,-0.688,2.922,0.133
2019-06-09-14:27:45.201718,0.608,-0.397,10.186,11.300,38.400,29.800,-0.609,2.719,-0.070
2019-06-09-14:27:45.221272,0.739,-0.426,10.169,12.400,38.600,28.400,-1.203,2.477,-0.078
2019-06-09-14:27:45.240709,0.794,-0.292,10.098,11.600,38.700,28.100,-0.602,2.781,-0.023
2019-06-09-14:27:45.260113,0.627,-0.452,10.263,12.300,38.700,30.300,-0.977,3.164,0.172
2019-06-09-14:27:45.279614,0.598,-0.462,10.155,12.200,38.100,28.600,-0.836,2.672,0.062
2019-06-09-14:27:45.299055,0.749,-0.275,10.100,11.800,37.900,28.500,-0.867,2.711,-0.078
2019-06-09-14:27:45.321852,0.653,-0.263,10.153,12.400,38.500,27.000,-0.758,2.969,0.148
2019-06-09-14:27:45.341610,0.617,-0.378,10.055,13.800,38.100,28.700,-0.711,2.578,0.188
2019-06-09-14:27:45.361208,0.725,-0.364,10.126,12.200,38.800,28.300,-0.867,2.930,0.102
2019-06-09-14:27:45.380667,0.692,-0.347,10.220,12.000,37.800,28.300,-1.047,2.836,0.234
2019-06-09-14:27:45.400140,0.727,-0.486,10.138,11.700,38.300,28.900,-0.867,2.539,0.008
2019-06-09-14:27:45.419727,0.739,-0.414,10.119,12.900,37.200,28.500,-0.922,2.961,0.312
2019-06-09-14:27:45.439167,0.708,-0.352,10.227,11.200,38.300,28.800,-1.070,2.844,0.109
2019-06-09-14:27:45.458660,0.692,-0.428,10.110,12.500,37.900,29.200,-1.188,2.812,0.234
2019-06-09-14:27:45.478208,0.730,-0.349,10.083,12.500,38.700,29.000,-0.734,2.844,0.062
2019-06-09-14:27:45.501499,0.682,-0.306,10.193,12.200,37.400,28.700,-0.844,2.914,-0.180
2019-06-09-14:27:45.521082,0.680,-0.404,10.091,12.700,38.800,28.600,-0.734,2.539,0.102
2019-06-09-14:27:45.540531,0.696,-0.352,10.086,11.700,39.100,28.100,-0.984,2.992,0.086
2019-06-09-14:27:45.559971,0.670,-0.287,10.158,11.400,38.600,28.300,-0.875,2.945,0.109
2019-06-09-14:27:45.579508,0.684,-0.349,10.081,12.400,39.100,29.000,-0.828,2.609,-0.117
2019-06-09-14:27:45.598957,0.651,-0.359,10.102,12.000,38.200,30.000,-1.000,2.836,0.086
2019-06-09-14:27:45.618398,0.711,-0.306,10.146,12.100,39.300,28.900,-0.711,2.773,0.312
2019-06-09-14:27:45.637901,0.653,-0.328,10.079,10.300,38.200,28.600,-0.875,2.914,-0.117
2019-06-09-14:27:45.657361,0.694,-0.357,10.134,12.300,38.500,27.800,-0.922,2.859,0.062
2019-06-09-14:27:45.676801,0.663,-0.335,10.131,11.900,38.100,29.700,-0.711,3.133,0.016
2019-06-09-14:27:45.696247,0.720,-0.318,10.150,11.900,38.300,27.800,-0.711,2.773,0.172
2019-06-09-14:27:45.715729,0.629,-0.359,10.050,11.000,38.900,29.300,-0.867,2.758,-0.047
2019-06-09-14:27:45.737273,0.680,-0.390,10.162,12.000,39.100,28.500,-1.430,2.750,0.156
2019-06-09-14:27:45.756779,0.682,-0.287,10.088,11.800,37.800,29.700,-0.719,3.008,0.086
2019-06-09-14:27:45.776527,0.706,-0.371,10.134,12.100,38.800,28.700,-0.500,2.914,-0.094
2019-06-09-14:27:45.796039,0.648,-0.359,10.114,11.800,38.300,28.700,-0.695,2.938,-0.023
2019-06-09-14:27:45.815513,0.692,-0.352,10.158,12.100,38.700,28.800,-0.586,2.812,0.375
2019-06-09-14:27:45.835057,0.718,-0.352,10.110,11.300,38.100,27.800,-1.359,2.875,0.016
2019-06-09-14:27:45.854494,0.680,-0.400,10.160,11.700,38.500,29.400,-1.172,2.750,0.281
2019-06-09-14:27:45.874000,0.708,-0.328,10.129,12.100,38.100,29.700,-0.578,2.867,-0.008
2019-06-09-14:27:45.893452,0.723,-0.371,10.153,12.200,37.800,30.600,-1.273,3.156,0.156
2019-06-09-14:27:45.912894,0.663,-0.380,10.165,12.600,37.900,28.500,-1.094,2.734,0.234
2019-06-09-14:27:45.932406,0.692,-0.366,10.189,11.900,37.800,28.400,-0.375,2.836,0.086
2019-06-09-14:27:45.951882,0.739,-0.371,10.167,12.300,38.600,29.300,-0.680,2.758,-0.094
2019-06-09-14:27:45.971598,0.672,-0.402,10.165,11.700,38.400,29.000,-1.062,2.906,-0.031
2019-06-09-14:27:45.991152,0.708,-0.392,10.153,11.000,38.400,29.400,-0.336,2.883,-0.125
2019-06-09-14:27:46.010583,0.727,-0.366,10.153,12.100,38.400,28.000,-0.828,2.883,0.031
2019-06-09-14:27:46.030385,0.682,-0.395,10.184,12.200,37.800,28.900,-0.922,2.797,0.016
2019-06-09-14:27:46.049903,0.689,-0.373,10.124,11.500,38.700,28.100,-1.078,2.625,-0.094
2019-06-09-14:27:46.069491,0.727,-0.414,10.186,12.100,38.600,28.800,-0.414,2.969,0.016
2019-06-09-14:27:46.088967,0.711,-0.342,10.131,11.800,39.100,28.500,-0.680,2.820,-0.031
2019-06-09-14:27:46.108397,0.730,-0.419,10.174,11.800,38.200,28.700,-1.156,3.055,0.133
2019-06-09-14:27:46.130737,0.694,-0.409,10.167,12.000,38.100,29.100,-0.320,2.820,0.008
2019-06-09-14:27:46.150267,0.730,-0.364,10.114,12.400,38.000,28.500,-0.656,2.773,0.289
2019-06-09-14:27:46.169789,0.720,-0.383,10.169,11.700,38.600,28.800,-0.586,2.797,0.258
2019-06-09-14:27:46.189219,0.694,-0.383,10.114,11.800,37.400,29.600,-0.391,2.961,-0.047
2019-06-09-14:27:46.208668,0.706,-0.361,10.126,11.800,38.800,29.000,-0.562,2.711,0.031
2019-06-09-14:27:46.228165,0.656,-0.294,10.131,12.700,38.900,29.300,-0.711,2.906,0.133
2019-06-09-14:27:46.247692,0.615,-0.311,10.050,12.100,37.800,30.700,-0.836,2.969,0.188
2019-06-09-14:27:46.267122,0.665,-0.309,10.052,11.500,37.800,29.100,-0.688,2.625,0.062
2019-06-09-14:27:46.286527,0.696,-0.285,10.105,12.000,37.500,28.700,-0.711,2.875,0.305
2019-06-09-14:27:46.306068,0.627,-0.299,10.081,12.100,38.300,28.100,-0.609,2.758,0.242
2019-06-09-14:27:46.325517,0.646,-0.328,10.093,11.400,39.000,27.800,-0.711,2.789,0.195
2019-06-09-14:27:46.345042,0.689,-0.294,10.112,12.200,38.200,29.800,-1.070,2.648,0.188
2019-06-09-14:27:46.364483,0.668,-0.301,10.093,12.500,37.700,30.000,-0.617,2.945,0.156
2019-06-09-14:27:46.383918,0.660,-0.323,10.093,12.200,38.200,29.400,-0.500,2.805,0.008
2019-06-09-14:27:46.403349,0.684,-0.313,10.124,12.900,38.200,28.700,-0.625,2.820,-0.070
2019-06-09-14:27:46.422753,0.653,-0.328,10.102,11.700,38.700,28.700,-0.828,2.734,-0.078
2019-06-09-14:27:46.442309,0.656,-0.361,10.107,11.400,38.000,28.700,-0.688,2.664,0.195
2019-06-09-14:27:46.461820,0.677,-0.318,10.112,11.900,38.400,28.800,-0.375,3.016,0.086
2019-06-09-14:27:46.481383,0.658,-0.368,10.110,13.000,38.800,30.700,-0.508,2.836,0.086
2019-06-09-14:27:46.500823,0.684,-0.366,10.124,12.000,38.400,28.800,-0.578,2.609,-0.102
2019-06-09-14:27:46.522786,0.711,-0.333,10.105,12.100,38.200,27.900,-0.680,2.922,0.188
2019-06-09-14:27:46.542688,0.648,-0.366,10.129,12.500,38.000,28.300,-0.977,2.906,0.211
2019-06-09-14:27:46.562179,0.682,-0.368,10.126,11.300,39.000,28.900,-0.969,2.648,0.188
2019-06-09-14:27:46.581709,0.706,-0.349,10.138,11.500,38.400,27.700,-0.789,2.883,0.133
2019-06-09-14:27:46.601275,0.677,-0.385,10.172,12.400,38.300,28.100,-0.836,2.844,0.078
2019-06-09-14:27:46.620717,0.711,-0.395,10.150,12.400,38.500,28.100,-0.656,2.641,0.039
2019-06-09-14:27:46.640302,0.708,-0.361,10.153,11.900,39.200,29.200,-1.258,2.797,-0.078
2019-06-09-14:27:46.659767,0.687,-0.409,10.155,12.100,38.400,29.200,-0.773,2.758,0.219
2019-06-09-14:27:46.679209,0.646,-0.388,10.131,11.000,38.400,28.100,-0.812,2.625,0.062
2019-06-09-14:27:46.698655,0.658,-0.282,10.146,12.700,38.600,28.800,-0.828,2.586,-0.047
2019-06-09-14:27:46.718097,0.648,-0.263,10.057,11.300,38.200,29.300,-0.586,2.648,-0.008
2019-06-09-14:27:46.737684,0.632,-0.292,10.059,12.600,38.500,27.500,-0.891,2.977,-0.023
2019-06-09-14:27:46.757143,0.634,-0.287,10.045,11.700,38.900,28.800,-0.781,2.859,0.133
2019-06-09-14:27:46.776567,0.672,-0.266,10.074,11.500,38.300,27.900,-0.805,2.641,0.312
2019-06-09-14:27:46.796075,0.644,-0.285,10.050,12.000,39.000,28.500,-0.859,2.984,0.242
2019-06-09-14:27:46.815502,0.636,-0.297,10.086,11.200,38.800,28.800,-0.836,2.984,0.234
2019-06-09-14:27:46.834910,0.660,-0.280,10.071,12.300,38.400,27.600,-0.805,2.734,-0.203
2019-06-09-14:27:46.854411,0.641,-0.292,10.081,11.500,38.400,27.500,-0.906,2.898,0.125
2019-06-09-14:27:46.873852,0.668,-0.304,10.067,12.500,38.100,27.800,-0.984,2.734,-0.070
2019-06-09-14:27:46.893260,0.660,-0.282,10.064,12.900,37.800,28.300,-0.844,3.047,0.102
2019-06-09-14:27:46.912716,0.627,-0.301,10.105,12.400,37.400,29.300,-0.344,3.125,-0.117
2019-06-09-14:27:46.932152,0.646,-0.309,10.067,11.700,37.800,30.500,-1.188,2.922,0.109
2019-06-09-14:27:46.951744,0.653,-0.292,10.086,12.100,38.100,28.100,-1.141,2.945,0.086
2019-06-09-14:27:46.971361,0.656,-0.292,10.081,11.900,38.600,28.600,-0.875,2.648,0.148
2019-06-09-14:27:46.990887,0.653,-0.309,10.064,12.100,38.100,28.400,-0.914,2.766,-0.055
2019-06-09-14:27:47.010320,0.660,-0.306,10.110,13.100,38.100,29.000,-0.852,2.711,0.336
2019-06-09-14:27:47.029739,0.660,-0.309,10.074,12.500,38.400,29.500,-1.055,2.664,0.289
2019-06-09-14:27:47.049216,0.689,-0.337,10.126,11.200,37.300,28.500,-0.805,2.750,0.133
2019-06-09-14:27:47.068649,0.629,-0.359,10.107,12.300,37.500,28.500,-0.539,2.789,0.102
2019-06-09-14:27:47.088060,0.636,-0.380,10.160,11.700,37.400,29.800,-0.641,2.555,0.414
2019-06-09-14:27:47.107482,0.730,-0.345,10.153,11.400,38.100,28.800,-0.562,2.734,0.266
2019-06-09-14:27:47.126911,0.677,-0.318,10.146,12.100,39.000,28.200,-0.570,3.102,0.078
2019-06-09-14:27:47.146320,0.646,-0.361,10.095,12.900,37.600,28.300,-0.844,2.625,-0.164
2019-06-09-14:27:47.165868,0.687,-0.280,10.062,12.100,38.300,28.300,-0.867,2.719,-0.023
2019-06-09-14:27:47.185293,0.677,-0.261,10.059,12.900,38.400,29.900,-1.055,2.750,0.289
2019-06-09-14:27:47.204766,0.672,-0.292,10.038,11.700,38.700,29.700,-0.586,2.703,0.109
2019-06-09-14:27:47.226301,0.639,-0.297,10.076,12.500,38.000,28.100,-0.492,2.672,0.312
2019-06-09-14:27:47.245908,0.641,-0.294,10.081,11.300,38.400,28.800,-1.102,2.734,0.086
2019-06-09-14:27:47.265394,0.680,-0.345,10.079,11.700,37.800,29.200,-0.875,2.664,0.148
2019-06-09-14:27:47.284817,0.670,-0.304,10.102,12.400,38.500,28.500,-1.047,2.734,0.055
2019-06-09-14:27:47.304319,0.627,-0.282,10.091,11.900,37.100,28.800,-0.789,2.930,0.211
2019-06-09-14:27:47.326602,0.668,-0.294,10.079,12.500,37.900,29.100,-1.102,2.758,0.016
2019-06-09-14:27:47.346268,0.663,-0.282,10.088,11.800,38.200,28.500,-0.242,2.625,0.195
2019-06-09-14:27:47.365904,0.668,-0.294,10.064,13.300,38.100,28.700,-0.734,2.836,0.211
2019-06-09-14:27:47.385396,0.658,-0.282,10.081,12.300,37.900,29.300,-0.336,3.094,0.016
2019-06-09-14:27:47.404837,0.648,-0.273,10.069,11.700,38.300,28.600,-0.945,2.969,0.109
2019-06-09-14:27:47.424321,0.670,-0.273,10.050,12.300,38.500,29.900,-0.656,2.891,0.008
2019-06-09-14:27:47.443748,0.648,-0.290,10.052,12.800,38.000,29.800,-0.805,2.984,0.219
2019-06-09-14:27:47.463328,0.636,-0.280,10.076,12.100,38.800,28.200,-1.055,2.984,0.172
2019-06-09-14:27:47.482821,0.651,-0.285,10.076,13.000,37.200,27.800,-0.859,2.703,0.086
2019-06-09-14:27:47.502348,0.625,-0.256,10.004,12.600,37.600,28.500,-0.750,2.734,0.211
2019-06-09-14:27:47.521779,0.608,-0.244,10.091,12.200,38.600,30.700,-0.703,2.641,0.102
2019-06-09-14:27:47.541279,0.644,-0.268,10.002,11.700,37.900,28.300,-0.891,2.867,-0.023
2019-06-09-14:27:47.560828,0.658,-0.313,10.057,12.400,37.100,29.100,-0.711,2.727,0.156
2019-06-09-14:27:47.580281,0.718,-0.345,10.098,11.300,39.300,28.900,-0.680,2.711,0.234
2019-06-09-14:27:47.599702,0.684,-0.347,10.122,12.400,38.800,29.600,-1.000,2.516,0.422
2019-06-09-14:27:47.619125,0.699,-0.371,10.126,11.600,38.000,29.500,-0.641,2.906,0.328
2019-06-09-14:27:47.638560,0.701,-0.352,10.117,11.700,37.200,29.700,-0.938,2.820,-0.031
2019-06-09-14:27:47.657985,0.727,-0.366,10.134,12.800,38.600,29.900,-1.016,2.539,0.234
2019-06-09-14:27:47.677557,0.665,-0.352,10.124,13.000,38.300,29.500,-0.977,2.812,0.156
2019-06-09-14:27:47.697010,0.613,-0.290,10.086,12.400,38.000,29.800,-0.688,2.625,0.109
2019-06-09-14:27:47.716467,0.706,-0.273,10.081,12.000,38.700,28.800,-0.781,2.688,0.188
2019-06-09-14:27:47.736363,0.627,-0.345,10.079,12.400,37.800,27.600,-0.703,2.820,0.039
2019-06-09-14:27:47.755994,0.706,-0.471,10.292,13.000,37.900,28.400,-0.805,2.906,0.078
2019-06-09-14:27:47.775517,0.814,-0.481,10.208,12.300,38.800,28.200,-1.484,2.922,0.352
2019-06-09-14:27:47.794950,0.780,-0.519,10.217,12.400,37.900,29.400,-1.555,2.758,0.133
2019-06-09-14:27:47.814365,0.665,-0.347,10.134,12.800,38.700,29.500,-1.141,2.734,0.031
2019-06-09-14:27:47.833770,0.711,-0.287,10.024,12.900,39.100,28.900,-0.992,2.797,0.234
2019-06-09-14:27:47.853198,0.629,-0.227,10.083,12.300,39.200,29.000,-0.359,2.820,-0.055
2019-06-09-14:27:47.872701,0.706,-0.304,10.095,12.400,38.400,29.600,-1.203,2.695,-0.023
2019-06-09-14:27:47.892159,0.742,-0.469,10.158,12.200,37.700,30.100,-0.945,2.906,0.219
2019-06-09-14:27:47.911705,0.735,-0.481,10.246,12.300,37.700,29.100,-0.898,2.664,0.156
2019-06-09-14:27:47.931210,0.699,-0.385,10.136,12.300,37.600,29.000,-1.266,2.867,-0.125
2019-06-09-14:27:47.950637,0.670,-0.354,10.076,12.100,38.600,29.800,-0.703,2.664,0.258
2019-06-09-14:27:47.970197,0.706,-0.400,10.153,11.800,38.100,29.500,-0.836,2.758,0.234
2019-06-09-14:27:47.989954,0.725,-0.481,10.222,11.600,37.600,28.700,-0.828,2.656,-0.047
2019-06-09-14:27:48.009530,0.699,-0.409,10.186,11.200,37.900,29.600,-0.555,3.070,0.148
2019-06-09-14:27:48.029029,0.720,-0.366,10.167,12.500,39.000,29.900,-1.102,2.703,0.195
2019-06-09-14:27:48.048487,0.696,-0.364,10.150,11.600,38.000,29.900,-0.812,2.859,0.234
2019-06-09-14:27:48.067983,0.701,-0.366,10.150,11.200,37.800,30.400,-0.688,2.797,0.281
2019-06-09-14:27:48.087567,0.703,-0.380,10.174,10.900,38.200,29.000,-0.648,2.938,-0.102
2019-06-09-14:27:48.107028,0.694,-0.395,10.146,11.800,37.900,30.200,-0.469,2.969,0.188
2019-06-09-14:27:48.126454,0.706,-0.390,10.160,12.000,38.700,28.000,-0.641,2.820,0.234
2019-06-09-14:27:48.145944,0.692,-0.380,10.148,12.500,37.300,30.100,-0.836,2.711,-0.023
2019-06-09-14:27:48.165419,0.708,-0.380,10.146,10.500,37.600,29.700,-0.836,2.797,0.211
2019-06-09-14:27:48.184882,0.694,-0.385,10.155,10.900,38.500,29.800,-0.953,2.844,0.016
2019-06-09-14:27:48.204398,0.713,-0.385,10.169,12.200,37.500,29.800,-0.438,2.914,-0.273
2019-06-09-14:27:48.223838,0.706,-0.376,10.155,12.200,38.000,29.100,-1.484,2.773,0.086
2019-06-09-14:27:48.243289,0.696,-0.414,10.150,12.100,37.600,28.800,-1.273,2.922,0.242
2019-06-09-14:27:48.262702,0.701,-0.376,10.153,12.000,38.100,29.500,-0.922,2.820,-0.008
2019-06-09-14:27:48.282114,0.701,-0.390,10.153,12.700,38.100,29.000,-0.688,2.773,0.102
2019-06-09-14:27:48.301682,0.713,-0.371,10.155,12.300,38.600,28.700,-1.242,2.727,0.172
2019-06-09-14:27:48.321274,0.632,-0.366,10.177,11.800,38.600,29.400,-0.922,2.711,-0.070
2019-06-09-14:27:48.340706,0.634,-0.285,10.062,11.100,37.200,29.500,-1.125,2.984,0.031
2019-06-09-14:27:48.360124,0.648,-0.280,10.055,11.700,37.800,28.700,-0.859,2.773,0.133
2019-06-09-14:27:48.379636,0.658,-0.290,10.079,12.700,37.800,29.700,-0.805,2.836,0.211
2019-06-09-14:27:48.399121,0.680,-0.301,10.074,12.900,38.100,29.900,-1.039,2.914,-0.008
2019-06-09-14:27:48.418536,0.665,-0.306,10.083,12.600,37.900,30.300,-0.453,2.844,-0.008
2019-06-09-14:27:48.437934,0.653,-0.321,10.067,11.400,38.300,30.100,-0.461,2.797,0.125
2019-06-09-14:27:48.457349,0.658,-0.309,10.107,11.300,37.800,28.900,-0.961,2.742,-0.125
2019-06-09-14:27:48.477024,0.658,-0.313,10.098,11.000,37.500,28.800,-0.617,2.836,0.125
2019-06-09-14:27:48.496571,0.672,-0.311,10.124,11.900,37.900,29.300,-0.984,2.938,-0.047
2019-06-09-14:27:48.516110,0.672,-0.337,10.095,11.800,38.600,30.300,-0.742,2.766,0.008
2019-06-09-14:27:48.536447,0.675,-0.335,10.131,11.400,37.800,28.400,-0.930,2.812,0.133
2019-06-09-14:27:48.556070,0.670,-0.342,10.138,11.100,37.700,28.300,-0.977,2.703,0.125
2019-06-09-14:27:48.575532,0.689,-0.342,10.129,11.700,37.300,28.500,-0.320,2.898,0.156
2019-06-09-14:27:48.595006,0.668,-0.349,10.131,12.800,38.000,29.100,-0.586,2.883,0.367
2019-06-09-14:27:48.614464,0.689,-0.347,10.136,12.100,37.500,29.500,-1.023,2.820,0.109
2019-06-09-14:27:48.633895,0.677,-0.359,10.136,11.500,38.000,30.000,-0.781,2.969,0.055
2019-06-09-14:27:48.653363,0.684,-0.340,10.129,11.900,37.900,28.500,-0.562,2.844,0.062
2019-06-09-14:27:48.672803,0.682,-0.368,10.150,11.700,37.700,28.100,-0.828,2.711,0.055
2019-06-09-14:27:48.692347,0.694,-0.366,10.119,12.600,38.100,28.800,-1.102,2.844,0.055
2019-06-09-14:27:48.711880,0.696,-0.371,10.126,11.600,37.500,29.400,-0.820,3.117,0.125
2019-06-09-14:27:48.733446,0.692,-0.364,10.162,11.300,38.200,29.000,-0.859,2.836,0.016
2019-06-09-14:27:48.752998,0.694,-0.364,10.155,12.300,37.700,28.500,-0.828,2.727,0.102
2019-06-09-14:27:48.772438,0.692,-0.378,10.153,11.900,37.800,28.200,-0.789,2.859,0.125
2019-06-09-14:27:48.791872,0.648,-0.380,10.138,11.200,38.200,28.200,-1.070,2.758,-0.055
2019-06-09-14:27:48.811458,0.641,-0.292,10.160,12.400,37.400,29.900,-0.641,2.727,0.125
2019-06-09-14:27:48.830884,0.660,-0.285,10.033,11.200,37.800,27.900,-0.703,2.984,0.102
2019-06-09-14:27:48.850315,0.656,-0.299,10.069,12.500,38.600,28.800,-0.422,2.703,0.188
2019-06-09-14:27:48.869757,0.646,-0.273,10.043,11.800,37.900,28.000,-0.531,2.812,0.016
2019-06-09-14:27:48.889160,0.658,-0.275,10.074,12.300,38.200,27.900,-0.812,2.797,0.125
2019-06-09-14:27:48.908716,0.641,-0.290,10.067,12.500,37.900,27.400,-1.117,2.789,0.062
2019-06-09-14:27:48.930605,0.639,-0.275,10.038,11.800,37.800,29.100,-0.523,2.992,-0.023
2019-06-09-14:27:48.950290,0.644,-0.290,10.079,11.300,37.500,28.000,-0.734,3.031,0.156
2019-06-09-14:27:48.969870,0.636,-0.278,10.069,11.800,38.600,28.200,-0.898,2.539,0.305
2019-06-09-14:27:48.989467,0.644,-0.280,10.062,11.900,38.300,28.500,-1.031,2.688,0.148
2019-06-09-14:27:49.009006,0.636,-0.290,10.081,12.000,38.000,28.900,-0.969,2.789,0.148
2019-06-09-14:27:49.028453,0.646,-0.285,10.095,12.000,37.000,28.800,-0.781,2.617,0.031
2019-06-09-14:27:49.047965,0.641,-0.301,10.086,11.800,38.500,28.200,-0.945,2.797,0.109
2019-06-09-14:27:49.067485,0.648,-0.278,10.079,12.000,37.400,29.500,-0.688,2.859,0.078
2019-06-09-14:27:49.086942,0.641,-0.306,10.100,11.600,36.700,29.200,-0.789,2.750,0.312
2019-06-09-14:27:49.106446,0.656,-0.304,10.081,11.800,39.100,27.400,-1.062,2.680,0.008
2019-06-09-14:27:49.125995,0.646,-0.304,10.088,11.700,37.600,30.200,-0.727,2.734,0.195
2019-06-09-14:27:49.145443,0.634,-0.309,10.071,11.000,38.400,29.400,-0.820,2.969,0.008
2019-06-09-14:27:49.164901,0.660,-0.313,10.110,12.200,39.000,29.500,-1.070,2.930,0.266
2019-06-09-14:27:49.184390,0.646,-0.335,10.086,12.100,37.900,29.400,-0.656,2.891,-0.031
2019-06-09-14:27:49.203822,0.675,-0.304,10.095,11.700,38.500,28.500,-0.789,2.883,0.156
2019-06-09-14:27:49.223337,0.670,-0.325,10.110,11.400,38.700,29.000,-0.789,2.711,0.031
2019-06-09-14:27:49.242773,0.699,-0.330,10.112,11.800,38.600,28.600,-0.922,2.633,-0.031
2019-06-09-14:27:49.262193,0.680,-0.335,10.124,11.600,37.900,28.300,-1.195,2.898,0.039
2019-06-09-14:27:49.281698,0.680,-0.321,10.105,12.400,38.200,28.900,-1.078,2.836,0.375
2019-06-09-14:27:49.301190,0.682,-0.323,10.110,11.500,37.700,29.000,-0.977,2.750,0.148
2019-06-09-14:27:49.320745,0.682,-0.313,10.119,11.500,37.900,29.300,-0.727,2.711,0.109
2019-06-09-14:27:49.340193,0.672,-0.309,10.098,11.600,39.200,29.700,-1.430,2.945,0.109
2019-06-09-14:27:49.359708,0.660,-0.304,10.059,11.800,38.000,28.900,-0.906,2.711,0.234
2019-06-09-14:27:49.379138,0.665,-0.299,10.107,11.100,38.100,29.700,-0.945,2.602,0.133
2019-06-09-14:27:49.398638,0.586,-0.321,10.059,12.400,37.600,27.800,-0.773,2.695,-0.047
2019-06-09-14:27:49.418122,0.720,-0.244,10.059,11.100,38.000,30.600,-0.859,2.906,0.211
2019-06-09-14:27:49.437630,0.682,-0.313,10.136,11.800,37.600,28.900,-1.055,3.180,0.031
2019-06-09-14:27:49.457076,0.586,-0.266,9.976,10.700,38.000,29.500,-1.508,2.664,0.062
2019-06-09-14:27:49.476653,0.625,-0.407,10.153,12.800,37.800,28.200,-0.891,3.156,0.172
2019-06-09-14:27:49.496148,0.684,-0.309,10.086,11.600,37.900,28.400,-0.781,2.539,0.062
2019-06-09-14:27:49.515600,0.761,-0.261,10.057,11.700,37.600,30.500,-1.102,3.289,0.203
2019-06-09-14:27:49.535124,0.541,-0.385,10.114,11.500,37.100,29.200,-0.773,2.555,0.172
2019-06-09-14:27:49.554564,0.694,-0.270,10.012,11.500,38.900,28.200,-0.789,2.688,0.102
2019-06-09-14:27:49.574137,0.684,-0.237,10.064,12.200,36.700,28.600,-0.836,3.008,0.062
2019-06-09-14:27:49.593582,0.579,-0.287,10.076,11.400,38.300,30.400,-0.750,2.359,0.289
2019-06-09-14:27:49.612990,0.668,-0.287,10.026,12.500,36.900,28.600,-0.758,2.812,0.219
2019-06-09-14:27:49.632466,0.742,-0.371,10.184,13.000,37.100,29.500,-0.547,2.789,0.086
2019-06-09-14:27:49.651888,0.701,-0.376,10.186,11.200,36.900,29.400,-1.133,2.633,-0.102
2019-06-09-14:27:49.671457,0.720,-0.416,10.146,11.800,37.600,29.300,-0.375,2.945,0.172
2019-06-09-14:27:49.690884,0.708,-0.361,10.148,11.400,37.500,28.000,-0.812,3.297,0.070
2019-06-09-14:27:49.710320,0.715,-0.378,10.181,11.200,37.900,29.900,-0.602,2.539,-0.094
2019-06-09-14:27:49.732319,0.706,-0.426,10.131,11.600,37.100,29.500,-0.789,2.586,0.242
2019-06-09-14:27:49.752054,0.715,-0.359,10.143,11.600,38.100,29.300,-0.758,2.703,0.266
2019-06-09-14:27:49.771628,0.711,-0.359,10.158,11.500,38.900,29.600,-0.875,2.844,0.289
2019-06-09-14:27:49.791144,0.613,-0.397,10.093,11.800,37.800,29.200,-0.586,2.539,0.367
2019-06-09-14:27:49.810564,0.797,-0.318,10.107,12.000,37.800,29.400,-0.617,2.844,0.148
2019-06-09-14:27:49.830048,0.663,-0.364,10.213,11.700,37.900,29.200,-1.203,3.438,0.062
2019-06-09-14:27:49.849568,0.629,-0.407,10.112,10.300,37.500,29.200,-0.430,2.242,-0.055
2019-06-09-14:27:49.869010,0.742,-0.328,10.107,11.500,37.200,29.200,-0.891,3.016,0.016
2019-06-09-14:27:49.888441,0.708,-0.321,10.186,11.700,36.400,29.800,-1.148,2.711,0.148
2019-06-09-14:27:49.907972,0.670,-0.373,10.064,12.100,37.600,29.500,-0.820,3.031,0.195
2019-06-09-14:27:49.927468,0.651,-0.373,10.134,12.300,36.800,29.100,-0.711,2.898,0.242
2019-06-09-14:27:49.947003,0.727,-0.297,10.141,12.400,36.400,28.300,-0.578,2.797,-0.031
2019-06-09-14:27:49.966522,0.687,-0.325,10.074,10.900,37.700,29.000,-0.953,2.836,0.133
2019-06-09-14:27:49.986145,0.660,-0.333,10.110,11.300,37.100,29.200,-0.836,2.969,0.109
2019-06-09-14:27:50.005606,0.658,-0.301,10.136,12.200,36.700,30.500,-0.633,2.602,0.016
2019-06-09-14:27:50.025065,0.713,-0.306,10.079,12.500,36.600,29.000,-0.469,2.773,0.016
2019-06-09-14:27:50.044579,0.656,-0.297,10.076,11.900,36.200,28.500,-0.797,3.094,0.062
2019-06-09-14:27:50.064083,0.670,-0.361,10.067,12.300,37.700,30.000,-0.805,2.539,0.266
2019-06-09-14:27:50.083513,0.739,-0.199,10.031,12.500,37.700,28.300,-0.805,2.547,-0.117
2019-06-09-14:27:50.102976,0.768,-0.311,10.138,12.000,37.400,30.200,-0.773,2.953,-0.078
2019-06-09-14:27:50.122423,0.538,-0.390,10.124,11.800,37.700,28.700,-0.945,2.500,-0.094
2019-06-09-14:27:50.142469,0.732,-0.325,10.069,11.200,36.000,30.100,-1.203,2.906,-0.094
2019-06-09-14:27:50.162009,0.744,-0.278,10.086,11.400,37.200,28.800,-0.867,3.414,0.320
2019-06-09-14:27:50.181601,0.593,-0.404,10.174,12.300,38.000,29.200,-1.289,2.750,-0.031
2019-06-09-14:27:50.201153,0.737,-0.380,10.047,13.200,36.700,28.300,-0.711,2.906,0.242
2019-06-09-14:27:50.222590,0.682,-0.316,10.174,11.900,37.500,30.100,-0.930,3.250,-0.039
2019-06-09-14:27:50.242116,0.617,-0.380,10.131,12.900,36.500,28.900,-0.508,2.711,0.086
2019-06-09-14:27:50.261675,0.708,-0.428,10.074,12.300,38.100,28.600,-0.508,2.828,0.172
2019-06-09-14:27:50.281247,0.708,-0.297,10.193,11.200,37.100,29.700,-0.734,2.789,0.133
2019-06-09-14:27:50.300685,0.680,-0.368,10.134,12.200,37.200,30.400,-1.297,2.773,0.438
2019-06-09-14:27:50.320332,0.696,-0.438,10.095,12.100,37.100,29.600,-0.859,2.812,0.188
2019-06-09-14:27:50.339792,0.727,-0.330,10.162,12.200,36.800,28.500,-0.898,2.758,0.031
2019-06-09-14:27:50.359299,0.672,-0.371,10.189,11.600,38.300,29.600,-0.906,2.898,0.062
2019-06-09-14:27:50.378750,0.701,-0.440,10.114,12.100,37.300,28.200,-1.055,2.750,0.102
2019-06-09-14:27:50.398184,0.713,-0.347,10.172,12.200,37.300,30.400,-1.117,2.984,0.109
2019-06-09-14:27:50.417675,0.696,-0.359,10.191,12.000,37.800,28.400,-0.930,2.406,0.172
2019-06-09-14:27:50.437113,0.694,-0.424,10.086,11.900,37.500,28.800,-0.625,3.117,0.219
2019-06-09-14:27:50.456622,0.687,-0.366,10.162,11.400,37.500,27.800,-0.805,2.922,0.469
2019-06-09-14:27:50.476189,0.718,-0.325,10.158,11.000,36.800,28.500,-0.773,2.625,0.102
2019-06-09-14:27:50.499711,0.689,-0.409,10.093,10.800,38.000,28.400,-1.172,2.906,0.148
2019-06-09-14:27:50.519207,0.672,-0.366,10.155,11.200,37.300,29.100,-0.891,2.742,-0.227
2019-06-09-14:27:50.538647,0.737,-0.335,10.134,11.700,38.100,28.200,-1.234,2.680,0.008
2019-06-09-14:27:50.558111,0.694,-0.378,10.100,11.700,38.700,29.100,-0.773,2.836,0.125
2019-06-09-14:27:50.577628,0.665,-0.347,10.136,12.000,36.700,29.200,-0.953,2.812,0.188
2019-06-09-14:27:50.597056,0.703,-0.342,10.119,12.100,37.800,29.600,-0.875,2.555,0.156
2019-06-09-14:27:50.616474,0.708,-0.352,10.095,11.200,38.000,28.600,-0.859,2.773,0.078
2019-06-09-14:27:50.635980,0.658,-0.337,10.114,10.600,37.900,28.700,-1.188,2.672,0.102
2019-06-09-14:27:50.655474,0.687,-0.333,10.131,11.500,36.800,29.200,-0.555,2.656,-0.047
2019-06-09-14:27:50.674926,0.692,-0.335,10.083,11.900,37.900,29.700,-1.102,2.969,0.156
2019-06-09-14:27:50.694366,0.658,-0.328,10.100,12.300,38.600,29.300,-0.758,3.047,0.109
2019-06-09-14:27:50.713816,0.663,-0.337,10.122,13.200,38.200,28.900,-1.141,2.711,0.266
2019-06-09-14:27:50.733224,0.706,-0.345,10.112,11.600,37.700,28.500,-0.680,2.914,-0.070
2019-06-09-14:27:50.752651,0.665,-0.357,10.146,11.900,37.800,28.300,-0.414,2.930,-0.117
2019-06-09-14:27:50.772132,0.694,-0.352,10.138,12.100,37.700,28.100,-0.789,2.922,0.062
2019-06-09-14:27:50.791671,0.634,-0.368,10.117,11.500,38.800,29.500,-0.672,3.008,0.281
2019-06-09-14:27:50.811169,0.646,-0.397,10.146,11.500,37.400,27.500,-0.703,2.555,0.148
2019-06-09-14:27:50.830599,0.787,-0.309,10.110,10.900,38.500,28.100,-0.898,2.734,0.148
2019-06-09-14:27:50.850020,0.596,-0.366,10.143,11.300,37.800,27.700,-1.055,3.070,0.125
2019-06-09-14:27:50.869584,0.725,-0.395,10.119,11.900,38.700,29.000,-0.500,2.500,-0.008
2019-06-09-14:27:50.888998,0.670,-0.337,10.126,11.100,37.800,29.100,-0.695,3.102,0.133
2019-06-09-14:27:50.908473,0.687,-0.368,10.162,11.000,37.700,28.800,-0.789,2.727,0.172
2019-06-09-14:27:50.927929,0.701,-0.397,10.131,11.800,37.400,29.000,-1.102,2.992,0.078
2019-06-09-14:27:50.947917,0.689,-0.366,10.167,10.800,37.800,27.700,-0.742,2.656,-0.031
2019-06-09-14:27:50.967622,0.696,-0.395,10.162,12.400,38.300,28.800,-0.734,3.102,0.055
2019-06-09-14:27:50.987133,0.708,-0.407,10.146,11.800,37.600,30.500,-0.727,2.719,-0.008
2019-06-09-14:27:51.006572,0.725,-0.366,10.136,11.100,37.800,29.700,-0.906,2.812,0.078
2019-06-09-14:27:51.026337,0.665,-0.380,10.179,12.300,38.200,28.800,-1.102,2.734,0.016
2019-06-09-14:27:51.046001,0.727,-0.388,10.117,11.700,37.500,30.100,-0.859,2.797,0.188
2019-06-09-14:27:51.065532,0.703,-0.361,10.160,12.300,37.500,29.500,-0.789,2.836,0.125
2019-06-09-14:27:51.085012,0.684,-0.380,10.162,11.400,36.700,29.300,-1.000,2.836,0.031
2019-06-09-14:27:51.104483,0.646,-0.304,10.131,11.300,38.000,28.700,-1.148,2.789,0.188
2019-06-09-14:27:51.124016,0.639,-0.297,10.071,11.400,37.900,28.700,-0.891,3.133,0.055
2019-06-09-14:27:51.143511,0.641,-0.275,10.081,12.100,37.500,29.200,-0.586,2.859,0.102
2019-06-09-14:27:51.162938,0.660,-0.299,10.088,12.000,37.400,29.500,-0.852,2.711,0.102
2019-06-09-14:27:51.182438,0.648,-0.287,10.074,11.800,37.700,30.000,-0.805,2.906,0.055
2019-06-09-14:27:51.201911,0.646,-0.290,10.093,10.700,37.500,30.700,-0.461,2.891,-0.180
2019-06-09-14:27:51.221400,0.646,-0.306,10.062,11.900,37.800,28.400,-0.633,2.797,0.148
2019-06-09-14:27:51.240915,0.641,-0.306,10.071,12.200,38.700,28.600,-0.711,2.711,0.188
2019-06-09-14:27:51.260338,0.663,-0.313,10.100,11.500,38.000,29.900,-0.578,2.766,-0.148
2019-06-09-14:27:51.279810,0.668,-0.306,10.062,11.900,37.300,29.100,-0.586,2.875,0.078
2019-06-09-14:27:51.299234,0.644,-0.333,10.112,11.100,37.700,29.400,-0.461,2.867,-0.078
2019-06-09-14:27:51.318706,0.677,-0.321,10.114,11.500,37.600,30.500,-1.453,2.727,0.102
2019-06-09-14:27:51.341724,0.680,-0.330,10.107,11.100,37.100,29.000,-1.078,3.070,0.102
2019-06-09-14:27:51.361360,0.680,-0.318,10.088,10.900,37.600,28.900,-1.016,2.969,0.125
2019-06-09-14:27:51.380900,0.660,-0.347,10.124,11.500,38.200,28.900,-0.633,2.758,0.289
2019-06-09-14:27:51.400350,0.680,-0.328,10.105,11.300,38.000,30.600,-0.344,2.875,0.086
2019-06-09-14:27:51.419783,0.670,-0.342,10.119,11.700,38.200,29.400,-0.633,3.000,-0.070
2019-06-09-14:27:51.439207,0.680,-0.347,10.124,11.400,37.800,28.800,-0.945,2.727,0.109
2019-06-09-14:27:51.458644,0.701,-0.352,10.136,10.700,37.600,30.000,-0.695,3.016,0.039
2019-06-09-14:27:51.479149,0.672,-0.347,10.126,12.100,37.900,28.100,-0.938,3.031,0.211
2019-06-09-14:27:51.503299,0.699,-0.376,10.119,11.400,37.300,29.400,-0.805,2.922,0.078
2019-06-09-14:27:51.523236,0.701,-0.345,10.117,11.900,38.500,30.000,-0.555,2.797,-0.023
2019-06-09-14:27:51.542806,0.680,-0.366,10.148,11.700,38.300,30.600,-1.242,2.945,0.219
2019-06-09-14:27:51.562386,0.689,-0.378,10.155,12.100,38.000,29.900,-0.953,2.859,0.109
2019-06-09-14:27:51.581906,0.689,-0.380,10.158,11.500,37.400,29.800,-0.898,2.820,0.016
2019-06-09-14:27:51.601481,0.703,-0.368,10.143,11.900,37.900,30.600,-0.328,2.945,0.062
2019-06-09-14:27:51.620960,0.694,-0.388,10.181,11.100,37.200,29.100,-1.016,2.531,0.125
2019-06-09-14:27:51.640458,0.689,-0.392,10.155,11.000,38.100,28.600,-0.914,2.625,-0.031
2019-06-09-14:27:51.659954,0.703,-0.371,10.158,10.500,38.600,29.100,-0.539,2.820,-0.008
2019-06-09-14:27:51.679542,0.684,-0.390,10.131,11.700,37.800,28.700,-0.945,2.641,0.172
2019-06-09-14:27:51.699013,0.699,-0.373,10.155,10.500,38.100,29.500,-0.859,2.984,0.102
2019-06-09-14:27:51.718462,0.696,-0.383,10.150,11.400,38.000,29.900,-1.141,2.758,0.258
2019-06-09-14:27:51.739994,0.711,-0.407,10.141,12.300,38.700,29.000,-0.836,2.844,0.172
2019-06-09-14:27:51.759583,0.708,-0.392,10.172,12.100,37.700,30.900,-0.859,2.859,0.055
2019-06-09-14:27:51.779064,0.694,-0.400,10.146,11.700,38.200,31.100,-0.852,3.016,0.492
2019-06-09-14:27:51.798491,0.701,-0.380,10.153,12.300,37.900,30.400,-0.891,3.016,0.031
2019-06-09-14:27:51.817920,0.713,-0.388,10.146,11.400,37.400,31.100,-1.141,2.750,0.125
2019-06-09-14:27:51.837319,0.684,-0.376,10.158,11.500,38.400,29.600,-1.031,2.812,0.102
2019-06-09-14:27:51.856721,0.703,-0.378,10.138,10.200,38.400,31.100,-0.969,2.836,0.258
2019-06-09-14:27:51.876169,0.656,-0.354,10.124,11.400,37.700,31.600,-0.180,2.688,0.156
2019-06-09-14:27:51.895660,0.660,-0.292,10.083,11.500,38.800,29.600,-0.375,2.922,0.039
2019-06-09-14:27:51.915101,0.663,-0.285,10.079,11.400,38.600,32.300,-0.633,2.820,-0.008
2019-06-09-14:27:51.934524,0.644,-0.297,10.047,12.100,38.200,30.300,-0.641,2.773,0.133
2019-06-09-14:27:51.954108,0.648,-0.282,10.074,11.000,38.100,30.700,-0.539,2.883,0.055
2019-06-09-14:27:51.973720,0.644,-0.311,10.102,10.600,37.400,30.100,-0.852,2.867,-0.023
2019-06-09-14:27:51.993251,0.656,-0.309,10.071,10.200,37.800,30.800,-0.938,3.047,0.086
2019-06-09-14:27:52.012682,0.653,-0.304,10.098,10.900,38.100,30.400,-0.773,2.812,0.219
2019-06-09-14:27:52.032103,0.656,-0.328,10.107,11.300,38.600,30.000,-0.633,2.844,0.031
2019-06-09-14:27:52.051621,0.672,-0.328,10.071,10.900,38.100,31.200,-0.508,2.898,0.148
2019-06-09-14:27:52.071062,0.663,-0.318,10.117,10.300,38.700,30.000,-0.742,2.844,-0.008
2019-06-09-14:27:52.090546,0.622,-0.368,10.081,11.300,38.900,29.700,-0.531,2.445,0.133
2019-06-09-14:27:52.109963,0.885,-0.227,10.203,10.500,37.800,29.600,-0.930,3.336,0.180
2019-06-09-14:27:52.129455,0.297,-0.512,10.172,10.800,38.700,30.300,-1.227,3.164,0.258
2019-06-09-14:27:52.149305,0.627,-0.479,10.114,11.500,39.400,29.800,-0.312,1.141,0.031
2019-06-09-14:27:52.168904,1.089,0.017,9.954,11.400,37.700,30.500,-1.219,4.227,-0.023
2019-06-09-14:27:52.188372,0.438,-0.419,10.311,12.100,37.300,30.800,-0.883,2.578,0.156
2019-06-09-14:27:52.207908,0.653,-0.424,9.837,10.900,38.400,30.500,-0.727,1.594,0.078
2019-06-09-14:27:52.227365,0.840,-0.261,10.208,11.000,38.200,30.700,-0.445,3.492,-0.070
2019-06-09-14:27:52.246788,0.522,-0.306,10.251,11.100,38.900,31.000,-0.914,3.047,0.289
2019-06-09-14:27:52.266214,0.677,-0.383,9.885,11.300,39.500,30.400,-1.258,2.344,0.266
2019-06-09-14:27:52.285620,0.775,-0.378,9.959,11.400,38.300,29.200,-0.617,3.352,0.070
2019-06-09-14:27:52.305131,0.519,-0.242,10.356,11.500,38.200,30.200,-0.719,2.938,-0.031
2019-06-09-14:27:52.324596,0.770,-0.371,9.949,10.700,37.800,29.900,-0.914,2.172,0.211
2019-06-09-14:27:52.344115,0.692,-0.366,9.949,11.700,38.200,30.000,-0.664,3.938,-0.023
2019-06-09-14:27:52.363557,0.560,-0.179,10.225,12.100,37.800,31.100,-1.078,2.367,0.039
2019-06-09-14:27:52.382991,0.680,-0.266,9.904,11.300,37.800,28.800,-1.031,2.672,0.086
2019-06-09-14:27:52.402480,0.636,-0.426,10.031,11.000,38.000,30.600,-0.750,2.930,0.281
2019-06-09-14:27:52.421899,0.675,-0.136,10.134,11.400,38.500,31.700,-0.641,2.750,0.242
2019-06-09-14:27:52.441382,0.672,-0.311,10.079,10.500,38.400,30.900,-1.047,2.930,0.211
2019-06-09-14:27:52.460848,0.622,-0.397,9.980,11.200,38.700,32.600,-0.703,2.992,-0.023
2019-06-09-14:27:52.480405,0.636,-0.191,10.150,10.800,39.300,31.000,-0.562,2.914,-0.094
2019-06-09-14:27:52.499921,0.723,-0.246,10.052,11.100,37.800,31.500,-0.969,2.602,0.125
2019-06-09-14:27:52.519459,0.605,-0.359,9.990,10.800,38.100,30.000,-0.500,3.055,0.062
2019-06-09-14:27:52.540956,0.601,-0.280,10.126,11.900,37.900,29.800,-0.539,2.617,0.055
2019-06-09-14:27:52.560606,0.782,-0.237,10.031,11.200,38.500,30.900,-0.961,2.766,-0.094
2019-06-09-14:27:52.580059,0.617,-0.354,10.062,11.000,38.000,30.100,-1.023,3.188,0.008
2019-06-09-14:27:52.599634,0.569,-0.323,10.110,11.100,39.000,31.000,-0.727,2.500,-0.023
2019-06-09-14:27:52.619092,0.744,-0.258,10.040,11.000,37.000,30.300,-0.953,2.773,0.133
2019-06-09-14:27:52.638528,0.646,-0.316,10.086,11.600,37.300,30.500,-1.000,3.102,-0.281
2019-06-09-14:27:52.657973,0.586,-0.333,10.124,10.600,37.500,29.600,-1.172,2.516,0.172
2019-06-09-14:27:52.677412,0.703,-0.313,10.076,11.600,38.200,30.100,-0.781,2.531,0.031
2019-06-09-14:27:52.696847,0.761,-0.313,10.107,11.200,37.600,31.400,-0.578,2.648,0.102
2019-06-09-14:27:52.716361,0.665,-0.328,10.134,10.800,38.100,31.400,-1.023,2.789,0.055
2019-06-09-14:27:52.735888,0.658,-0.359,10.129,10.900,37.300,29.200,-1.164,2.617,0.156
2019-06-09-14:27:52.755347,0.711,-0.301,10.074,11.300,38.500,32.300,-0.836,3.008,0.102
2019-06-09-14:27:52.774779,0.668,-0.318,10.122,11.600,37.200,32.000,-0.703,2.844,-0.031
2019-06-09-14:27:52.794283,0.651,-0.345,10.083,10.500,38.000,31.300,-0.898,2.602,0.219
2019-06-09-14:27:52.813772,0.684,-0.316,10.093,10.500,38.700,30.600,-0.945,2.883,0.195
2019-06-09-14:27:52.833203,0.668,-0.309,10.126,10.200,38.400,32.300,-1.195,2.984,0.086
2019-06-09-14:27:52.852623,0.689,-0.325,10.093,11.200,38.600,30.500,-0.625,2.734,-0.023
2019-06-09-14:27:52.872041,0.668,-0.323,10.095,10.500,37.600,32.200,-0.953,2.859,0.156
2019-06-09-14:27:52.891562,0.653,-0.290,10.098,10.800,37.900,30.400,-0.953,2.773,0.352
2019-06-09-14:27:52.911074,0.680,-0.311,10.079,10.900,38.300,29.800,-1.023,2.906,0.234
2019-06-09-14:27:52.930543,0.687,-0.313,10.083,10.900,38.900,29.800,-0.688,2.984,0.055
2019-06-09-14:27:52.949965,0.658,-0.280,10.076,10.800,37.900,30.800,-1.211,3.023,0.008
2019-06-09-14:27:52.969690,0.660,-0.313,10.057,10.700,38.600,30.600,-1.414,2.789,0.016
2019-06-09-14:27:52.989181,0.675,-0.297,10.014,11.300,37.900,30.300,-0.820,2.930,-0.070
2019-06-09-14:27:53.008627,0.677,-0.287,10.088,10.300,37.700,30.200,-0.875,2.906,-0.031
2019-06-09-14:27:53.028140,0.636,-0.299,10.059,11.100,37.900,31.300,-0.969,2.844,0.102
2019-06-09-14:27:53.047668,0.682,-0.287,10.062,10.800,37.900,30.600,-0.805,2.523,0.008
2019-06-09-14:27:53.067112,0.701,-0.368,10.074,11.600,38.000,29.800,-0.875,2.492,0.148
2019-06-09-14:27:53.086627,0.703,-0.354,10.150,10.200,37.000,31.100,-0.734,2.922,0.109
2019-06-09-14:27:53.106123,0.703,-0.383,10.134,10.700,37.200,31.100,-0.781,2.844,0.102
2019-06-09-14:27:53.125621,0.672,-0.380,10.174,10.100,38.000,30.200,-0.688,2.648,0.211
2019-06-09-14:27:53.145085,0.708,-0.376,10.136,11.100,37.400,30.600,-0.906,2.688,0.039
2019-06-09-14:27:53.164505,0.708,-0.378,10.143,11.400,37.400,31.300,-1.125,2.641,0.133
2019-06-09-14:27:53.183924,0.663,-0.368,10.179,11.000,37.500,30.000,-1.188,2.906,0.016
2019-06-09-14:27:53.203398,0.696,-0.364,10.165,10.600,37.700,31.000,-1.125,2.516,0.125
2019-06-09-14:27:53.224942,0.706,-0.366,10.177,10.500,38.200,30.700,-0.695,3.117,0.242
2019-06-09-14:27:53.244471,0.682,-0.376,10.165,10.900,37.900,33.200,-0.945,2.891,0.008
2019-06-09-14:27:53.263919,0.694,-0.366,10.150,10.700,37.200,31.400,-1.188,2.797,0.156
2019-06-09-14:27:53.283359,0.692,-0.364,10.150,10.300,36.400,30.500,-0.789,2.922,0.172
2019-06-09-14:27:53.302776,0.675,-0.364,10.155,10.700,38.100,30.700,-1.016,3.141,-0.078
2019-06-09-14:27:53.322400,0.660,-0.357,10.134,10.100,37.100,30.800,-0.805,2.562,-0.008
2019-06-09-14:27:53.344083,0.694,-0.419,10.143,10.300,37.000,31.800,-0.562,2.273,0.242
2019-06-09-14:27:53.363639,0.790,-0.347,10.045,10.500,38.400,31.600,-0.938,3.500,0.273
2019-06-09-14:27:53.383112,0.603,-0.371,10.280,9.900,37.200,31.500,-0.742,2.930,-0.031
2019-06-09-14:27:53.402538,0.747,-0.388,10.067,10.600,36.600,31.300,-0.945,2.477,0.016
2019-06-09-14:27:53.421951,0.723,-0.388,10.146,10.400,37.900,32.400,-0.844,3.398,0.117
2019-06-09-14:27:53.441448,0.672,-0.325,10.205,10.100,36.200,30.300,-0.742,2.508,-0.047
2019-06-09-14:27:53.460928,0.725,-0.388,10.174,10.000,36.700,32.500,-0.836,2.328,0.133
2019-06-09-14:27:53.480472,0.761,-0.395,10.050,10.200,36.500,29.700,-1.117,2.766,0.008
2019-06-09-14:27:53.499915,0.742,-0.325,10.124,11.200,37.000,31.300,-1.109,3.375,0.219
2019-06-09-14:27:53.519459,0.613,-0.337,10.186,10.100,35.700,30.500,-1.141,2.555,0.078
2019-06-09-14:27:53.538963,0.723,-0.368,10.019,10.500,37.300,31.000,-1.125,2.727,0.148
2019-06-09-14:27:53.558398,0.663,-0.371,10.158,9.400,36.700,30.400,-0.594,3.203,0.156
2019-06-09-14:27:53.577914,0.603,-0.282,10.131,10.100,36.500,31.700,-0.992,2.445,0.102
2019-06-09-14:27:53.597376,0.703,-0.309,10.031,9.700,37.500,30.600,-0.695,3.102,0.242
2019-06-09-14:27:53.616818,0.641,-0.357,10.114,9.000,37.600,30.000,-0.969,2.773,0.062
2019-06-09-14:27:53.636307,0.648,-0.287,10.114,8.600,36.600,30.500,-0.805,2.539,-0.102
2019-06-09-14:27:53.655842,0.665,-0.371,10.107,9.200,38.700,29.600,-0.773,2.820,0.258
2019-06-09-14:27:53.675297,0.665,-0.311,10.093,9.000,38.800,29.000,-1.031,2.969,0.039
2019-06-09-14:27:53.694725,0.651,-0.328,10.126,9.400,38.900,29.300,-1.016,2.820,0.211
2019-06-09-14:27:53.714259,0.677,-0.361,10.079,8.300,40.400,27.700,-0.641,2.734,0.125
2019-06-09-14:27:53.733691,0.663,-0.328,10.100,7.800,40.400,25.300,-0.906,3.047,0.086
2019-06-09-14:27:53.753533,0.670,-0.328,10.138,8.300,41.200,23.700,-0.969,2.797,0.211
2019-06-09-14:27:53.773073,0.692,-0.378,10.105,8.600,40.900,21.700,-0.891,3.031,0.148
2019-06-09-14:27:53.792528,0.668,-0.345,10.119,8.600,41.400,17.500,-0.445,2.859,0.031
2019-06-09-14:27:53.811953,0.699,-0.347,10.117,9.000,40.000,15.500,-0.867,2.539,-0.273
2019-06-09-14:27:53.831378,0.696,-0.376,10.093,7.900,39.000,12.200,-0.461,2.906,-0.031
2019-06-09-14:27:53.850841,0.687,-0.371,10.150,8.600,38.100,11.700,-0.805,2.719,-0.070
2019-06-09-14:27:53.870286,0.737,-0.371,10.141,6.600,37.200,10.300,-0.945,2.875,0.195
2019-06-09-14:27:53.889744,0.680,-0.404,10.141,7.300,36.000,9.600,-0.773,2.789,0.031
2019-06-09-14:27:53.909217,0.720,-0.357,10.110,6.200,35.700,9.800,-0.844,2.992,-0.047
2019-06-09-14:27:53.928627,0.651,-0.385,10.124,5.800,33.500,9.700,-0.758,2.625,0.367
2019-06-09-14:27:53.948145,0.625,-0.290,10.086,5.700,33.600,9.800,-0.773,2.859,0.234
2019-06-09-14:27:53.968042,0.615,-0.285,10.093,6.600,32.600,9.400,-0.641,3.078,0.188
2019-06-09-14:27:53.987602,0.632,-0.275,10.091,5.500,31.800,9.600,-1.047,2.859,0.031
2019-06-09-14:27:54.007110,0.625,-0.280,10.062,5.300,32.300,9.500,-0.562,2.930,0.102
2019-06-09-14:27:54.026634,0.613,-0.275,10.083,4.500,30.000,9.300,-0.742,2.852,-0.094
2019-06-09-14:27:54.046171,0.632,-0.282,10.062,3.800,30.900,9.100,-0.562,2.875,0.156
2019-06-09-14:27:54.065601,0.625,-0.273,10.050,2.400,30.400,9.800,-0.766,2.797,0.008
2019-06-09-14:27:54.085019,0.605,-0.263,10.081,2.700,30.600,10.000,-0.805,2.672,-0.047
2019-06-09-14:27:54.104440,0.639,-0.278,10.074,1.400,30.500,9.800,-0.883,2.844,0.188
2019-06-09-14:27:54.123867,0.627,-0.280,10.081,1.700,28.600,9.700,-0.812,2.750,0.148
2019-06-09-14:27:54.143336,0.627,-0.251,10.091,1.400,30.600,11.600,-1.016,2.586,-0.047
2019-06-09-14:27:54.162742,0.629,-0.278,10.079,0.700,30.100,8.600,-0.758,2.734,0.195
2019-06-09-14:27:54.182146,0.586,-0.304,10.062,-0.700,29.900,10.400,-0.500,3.078,0.148
2019-06-09-14:27:54.201664,0.620,-0.294,10.083,-0.400,29.700,8.500,-1.047,2.797,0.211
2019-06-09-14:27:54.221186,0.622,-0.292,10.083,-1.100,30.500,10.300,-0.578,2.758,-0.008
2019-06-09-14:27:54.240670,0.641,-0.292,10.069,-2.200,29.500,8.800,-0.922,2.812,0.109
2019-06-09-14:27:54.260131,0.622,-0.282,10.086,-1.600,30.200,8.200,-0.789,2.820,0.266
2019-06-09-14:27:54.279656,0.636,-0.294,10.093,-1.300,30.800,8.500,-0.594,2.773,0.266
2019-06-09-14:27:54.299104,0.713,-0.321,10.093,-2.400,30.200,7.800,-1.125,2.969,0.062
2019-06-09-14:27:54.318595,0.715,-0.357,10.126,-3.300,31.100,8.200,-1.148,2.727,0.266
2019-06-09-14:27:54.338030,0.715,-0.349,10.126,-2.700,31.800,9.000,-1.336,2.930,0.062
2019-06-09-14:27:54.357610,0.689,-0.361,10.129,-3.400,31.900,8.600,-0.539,3.070,0.305
2019-06-09-14:27:54.377099,0.718,-0.328,10.136,-3.800,32.600,8.600,-0.516,2.602,0.102
2019-06-09-14:27:54.396533,0.694,-0.345,10.112,-4.300,33.600,9.300,-0.516,2.984,0.031
2019-06-09-14:27:54.416049,0.696,-0.337,10.102,-3.300,34.100,8.600,-0.602,2.656,-0.023
2019-06-09-14:27:54.435488,0.682,-0.328,10.114,-4.300,34.500,9.300,-0.672,2.992,-0.148
2019-06-09-14:27:54.454978,0.682,-0.323,10.098,-5.200,35.100,8.700,-0.805,2.719,-0.023
2019-06-09-14:27:54.474569,0.665,-0.328,10.095,-4.800,36.100,9.300,-0.750,2.688,0.148
2019-06-09-14:27:54.494130,0.670,-0.323,10.100,-4.400,36.700,8.800,-1.016,2.758,-0.023
2019-06-09-14:27:54.513596,0.668,-0.321,10.102,-5.500,37.400,8.300,-0.609,2.586,0.156
2019-06-09-14:27:54.533011,0.663,-0.301,10.095,-4.300,38.700,10.000,-0.992,2.609,0.008
2019-06-09-14:27:54.552932,0.651,-0.287,10.086,-5.200,39.800,8.000,-0.422,2.898,0.078
2019-06-09-14:27:54.572473,0.653,-0.290,10.088,-4.400,39.300,8.700,-1.102,2.922,0.148
2019-06-09-14:27:54.591900,0.639,-0.287,10.076,-4.900,41.600,8.600,-0.883,2.922,0.086
2019-06-09-14:27:54.611418,0.632,-0.270,10.071,-4.400,42.600,8.100,-0.781,3.078,0.188
2019-06-09-14:27:54.630866,0.629,-0.285,10.064,-4.200,42.500,10.200,-1.016,2.984,0.211
2019-06-09-14:27:54.650300,0.625,-0.282,10.071,-5.000,43.200,10.000,-1.094,2.648,0.172
2019-06-09-14:27:54.669774,0.723,-0.275,10.062,-2.700,44.200,9.400,-0.680,2.469,0.031
2019-06-09-14:27:54.689205,0.727,-0.412,10.150,-3.100,45.700,10.600,-0.531,2.789,0.242
2019-06-09-14:27:54.708653,0.727,-0.400,10.160,-1.800,46.600,9.700,-0.688,3.055,0.086
2019-06-09-14:27:54.730184,0.711,-0.414,10.083,-1.500,47.600,11.200,-0.688,2.844,0.109
2019-06-09-14:27:54.749711,0.730,-0.388,10.067,-0.200,47.200,11.700,-1.047,2.859,0.062
2019-06-09-14:27:54.769221,0.739,-0.397,10.143,-0.900,47.700,12.700,-0.961,2.570,-0.211
2019-06-09-14:27:54.788641,0.723,-0.414,10.131,1.500,47.600,13.000,-0.547,3.047,0.086
2019-06-09-14:27:54.808067,0.737,-0.392,10.124,1.300,49.500,13.800,-0.398,2.812,0.211
2019-06-09-14:27:54.827570,0.715,-0.409,10.160,1.100,48.400,15.600,-0.742,2.742,-0.180
2019-06-09-14:27:54.846990,0.735,-0.392,10.148,1.700,48.000,15.700,-1.078,2.883,0.055
2019-06-09-14:27:54.866464,0.742,-0.395,10.126,2.800,48.900,17.700,-0.836,2.969,0.078
2019-06-09-14:27:54.885990,0.727,-0.385,10.148,4.000,48.900,18.000,-0.336,2.883,0.008
2019-06-09-14:27:54.905454,0.732,-0.388,10.134,4.900,48.100,18.000,-0.883,2.984,0.234
2019-06-09-14:27:54.924872,0.742,-0.390,10.148,4.500,48.300,17.300,-0.680,2.836,0.062
2019-06-09-14:27:54.947982,0.737,-0.392,10.138,5.100,49.500,18.500,-1.094,2.727,0.125
2019-06-09-14:27:54.967791,0.711,-0.380,10.150,4.900,48.500,18.700,-0.898,2.773,0.172
2019-06-09-14:27:54.987321,0.735,-0.378,10.126,5.200,50.300,20.700,-0.734,2.789,0.367
2019-06-09-14:27:55.006751,0.715,-0.371,10.136,4.900,50.800,20.300,-1.102,2.773,0.195
2019-06-09-14:27:55.026190,0.730,-0.366,10.124,5.800,49.800,21.900,-1.047,2.727,0.055
2019-06-09-14:27:55.045668,0.699,-0.357,10.122,6.400,49.300,23.500,-0.789,2.961,0.055
2019-06-09-14:27:55.065168,0.715,-0.345,10.095,6.800,49.400,23.100,-1.008,2.711,-0.117
2019-06-09-14:27:55.084627,0.701,-0.335,10.122,6.000,50.000,24.800,-0.617,2.859,0.219
2019-06-09-14:27:55.104129,0.680,-0.342,10.100,6.400,49.900,26.400,-0.609,2.898,0.305
2019-06-09-14:27:55.123584,0.684,-0.342,10.114,6.100,50.500,26.300,-1.070,2.914,-0.008
2019-06-09-14:27:55.143013,0.675,-0.335,10.112,6.200,51.400,25.900,-0.914,2.570,-0.031
2019-06-09-14:27:55.162459,0.687,-0.306,10.098,6.100,52.200,25.600,-1.234,2.906,0.102
2019-06-09-14:27:55.181959,0.665,-0.321,10.088,6.400,52.900,25.100,-1.125,2.727,0.062
2019-06-09-14:27:55.201425,0.651,-0.311,10.100,7.500,52.700,24.800,-0.695,3.094,0.039
2019-06-09-14:27:55.220873,0.653,-0.306,10.088,8.200,53.500,26.400,-0.953,2.625,0.258
2019-06-09-14:27:55.240298,0.675,-0.282,10.098,7.400,52.600,27.700,-0.719,2.969,-0.117
2019-06-09-14:27:55.259703,0.701,-0.376,10.146,8.700,52.800,27.500,-0.484,2.969,0.125
2019-06-09-14:27:55.279177,0.696,-0.388,10.134,8.500,53.500,28.800,-1.258,2.406,0.086
2019-06-09-14:27:55.298640,0.694,-0.376,10.136,7.600,53.100,28.600,-0.945,2.625,-0.188
2019-06-09-14:27:55.318150,0.694,-0.388,10.122,8.900,53.800,29.600,-0.578,2.953,-0.055
2019-06-09-14:27:55.337686,0.699,-0.397,10.160,8.600,52.600,28.600,-0.805,2.852,-0.023
2019-06-09-14:27:55.357109,0.718,-0.390,10.155,8.600,52.500,29.000,-0.789,2.820,0.234
2019-06-09-14:27:55.376592,0.720,-0.402,10.138,9.000,52.900,30.900,-0.828,2.555,0.055
2019-06-09-14:27:55.396133,0.727,-0.404,10.124,10.000,53.400,30.600,-0.945,2.930,-0.023
2019-06-09-14:27:55.415562,0.723,-0.400,10.169,9.200,53.600,29.000,-0.953,3.016,0.102
2019-06-09-14:27:55.434970,0.735,-0.409,10.158,9.700,52.900,31.300,-0.625,2.891,-0.125
2019-06-09-14:27:55.454407,0.739,-0.409,10.162,8.800,53.200,29.500,-0.562,2.953,-0.117
2019-06-09-14:27:55.474071,0.754,-0.414,10.138,9.200,52.400,30.800,-0.656,2.938,-0.094
2019-06-09-14:27:55.497613,0.732,-0.409,10.155,10.200,53.000,32.300,-1.055,2.625,0.109
2019-06-09-14:27:55.517124,0.732,-0.400,10.153,9.400,51.600,31.300,-1.094,2.703,0.156
2019-06-09-14:27:55.536561,0.742,-0.395,10.141,9.100,52.700,31.000,-0.789,3.102,-0.047
2019-06-09-14:27:55.556074,0.730,-0.419,10.141,10.000,52.100,30.600,-0.758,2.961,0.148
2019-06-09-14:27:55.575565,0.732,-0.388,10.131,9.900,52.400,31.900,-0.711,2.906,0.125
2019-06-09-14:27:55.595015,0.718,-0.392,10.129,9.900,52.600,32.500,-1.031,2.844,0.133
2019-06-09-14:27:55.614436,0.739,-0.383,10.122,9.800,53.600,29.100,-1.219,2.664,0.234
2019-06-09-14:27:55.633862,0.718,-0.385,10.143,10.800,53.500,26.900,-0.711,2.898,0.234
2019-06-09-14:27:55.653288,0.727,-0.380,10.134,10.600,54.900,29.800,-0.875,2.766,-0.023
2019-06-09-14:27:55.672727,0.718,-0.364,10.136,10.900,54.900,29.500,-0.484,2.883,-0.070
2019-06-09-14:27:55.692199,0.742,-0.366,10.122,9.500,54.300,28.000,-1.047,2.820,-0.188
2019-06-09-14:27:55.711901,0.701,-0.366,10.117,10.200,56.000,27.500,-1.289,2.625,0.109
2019-06-09-14:27:55.731340,0.711,-0.359,10.131,10.800,55.900,26.700,-0.602,2.758,0.062
2019-06-09-14:27:55.753027,0.699,-0.337,10.141,10.400,56.500,28.000,-0.922,2.820,0.086
2019-06-09-14:27:55.772550,0.701,-0.342,10.119,11.100,56.800,30.500,-0.836,3.180,0.133
2019-06-09-14:27:55.792604,0.684,-0.335,10.122,10.600,56.800,28.300,-0.531,2.703,0.109
2019-06-09-14:27:55.813340,0.687,-0.325,10.117,11.600,57.700,29.700,-0.492,3.094,0.156
2019-06-09-14:27:55.834676,0.672,-0.325,10.105,12.000,57.600,28.800,-1.211,2.898,0.062
2019-06-09-14:27:55.854616,0.682,-0.323,10.091,11.900,57.700,29.000,-0.805,2.750,0.156
2019-06-09-14:27:55.874335,0.663,-0.318,10.091,11.000,59.200,27.700,-0.969,2.930,0.062
2019-06-09-14:27:55.893958,0.677,-0.301,10.076,11.600,59.200,29.400,-1.445,2.805,-0.141
2019-06-09-14:27:55.913504,0.646,-0.294,10.086,12.200,60.000,27.100,-1.391,2.688,0.016
2019-06-09-14:27:55.932979,0.648,-0.278,10.086,12.600,61.100,28.300,-1.297,2.664,0.172
2019-06-09-14:27:55.952483,0.627,-0.309,10.055,12.100,60.100,26.900,-0.953,2.734,0.055
2019-06-09-14:27:55.972051,0.644,-0.294,10.083,12.700,60.400,28.900,-0.633,2.828,-0.125
2019-06-09-14:27:55.991690,0.639,-0.270,10.069,12.300,60.300,28.000,-1.141,2.711,-0.023
2019-06-09-14:27:56.011214,0.629,-0.299,10.062,12.400,60.200,27.700,-0.586,2.586,-0.008
2019-06-09-14:27:56.030924,0.739,-0.263,10.069,12.500,61.200,27.000,-0.734,2.906,0.328
2019-06-09-14:27:56.050450,0.723,-0.392,10.081,12.300,62.200,27.600,-1.031,2.883,0.148
2019-06-09-14:27:56.069924,0.725,-0.407,10.131,13.900,62.300,28.600,-0.805,2.836,0.031
2019-06-09-14:27:56.089466,0.727,-0.404,10.148,13.100,63.800,27.700,-0.617,3.000,-0.023
2019-06-09-14:27:56.108916,0.732,-0.400,10.169,12.600,65.100,28.000,-0.539,2.727,0.133
2019-06-09-14:27:56.128352,0.747,-0.419,10.141,13.400,65.300,26.600,-0.805,2.984,0.148
2019-06-09-14:27:56.150987,0.725,-0.400,10.138,13.800,65.200,27.400,-0.688,2.703,0.133
2019-06-09-14:27:56.170516,0.732,-0.388,10.040,14.600,65.800,28.100,-1.117,2.914,0.062
2019-06-09-14:27:56.190065,0.739,-0.421,10.131,14.000,65.900,26.700,-0.961,2.969,-0.031
2019-06-09-14:27:56.209637,0.732,-0.400,10.148,13.900,66.400,27.300,-0.852,2.633,-0.117
2019-06-09-14:27:56.231090,0.737,-0.395,10.143,14.700,65.600,28.600,-0.859,2.859,0.211
2019-06-09-14:27:56.250674,0.725,-0.273,10.079,14.900,66.100,30.200,-1.086,2.789,0.062
2019-06-09-14:27:56.270149,0.727,-0.371,10.117,14.800,66.200,29.200,-0.914,2.711,-0.023
2019-06-09-14:27:56.289678,0.708,-0.395,10.119,14.300,66.600,29.100,-0.609,2.734,0.289
2019-06-09-14:27:56.309128,0.725,-0.354,10.138,13.000,68.000,30.200,-0.984,2.891,-0.008
2019-06-09-14:27:56.328571,0.715,-0.378,10.158,14.500,68.800,30.300,-0.828,2.734,0.258
2019-06-09-14:27:56.348056,0.720,-0.373,10.150,15.000,69.400,29.100,-1.266,2.836,0.266
2019-06-09-14:27:56.367573,0.723,-0.366,10.150,14.500,69.600,29.600,-1.031,2.922,0.078
2019-06-09-14:27:56.387067,0.720,-0.373,10.124,13.800,69.300,32.000,-0.922,2.945,0.148
2019-06-09-14:27:56.406530,0.715,-0.354,10.138,14.700,69.900,28.600,-1.031,2.875,0.016
2019-06-09-14:27:56.426070,0.692,-0.357,10.105,14.400,69.300,31.600,-1.000,3.016,0.102
2019-06-09-14:27:56.445495,0.694,-0.340,10.129,13.600,70.300,31.300,-0.703,2.906,0.219
2019-06-09-14:27:56.464992,0.694,-0.352,10.136,14.500,69.200,31.700,-1.016,2.875,0.211
2019-06-09-14:27:56.484476,0.689,-0.333,10.110,14.000,69.700,32.900,-0.898,2.953,-0.102
2019-06-09-14:27:56.504087,0.696,-0.330,10.119,14.900,68.600,34.800,-0.680,2.789,0.016
2019-06-09-14:27:56.523552,0.680,-0.325,10.117,14.100,69.000,36.600,-0.930,2.711,0.086
2019-06-09-14:27:56.542994,0.682,-0.318,10.093,12.800,69.100,37.700,-0.672,2.711,-0.023
2019-06-09-14:27:56.562420,0.658,-0.328,10.095,12.600,69.500,37.400,-1.070,2.875,0.078
2019-06-09-14:27:56.581855,0.670,-0.301,10.079,12.800,68.600,38.400,-0.859,2.758,0.289
2019-06-09-14:27:56.601436,0.644,-0.301,10.100,13.400,68.400,38.400,-0.961,2.820,-0.070
2019-06-09-14:27:56.620871,0.703,-0.364,10.088,12.500,68.800,40.500,-1.164,2.672,-0.148
2019-06-09-14:27:56.640298,0.703,-0.378,10.126,13.800,70.300,41.300,-0.781,2.750,0.039
2019-06-09-14:27:56.659721,0.696,-0.378,10.134,12.500,70.000,41.800,-0.484,2.711,-0.148
2019-06-09-14:27:56.679162,0.723,-0.371,10.138,13.300,70.200,43.200,-0.750,2.648,0.055
2019-06-09-14:27:56.698647,0.711,-0.395,10.165,12.800,70.600,44.600,-1.141,2.758,0.133
2019-06-09-14:27:56.718115,1.201,-0.546,9.846,13.100,70.400,45.600,-0.438,4.367,0.055
2019-06-09-14:27:56.737633,0.431,-0.340,11.060,12.600,70.600,46.300,-0.461,1.758,0.102
2019-06-09-14:27:56.757057,0.924,-0.469,9.887,12.200,72.500,45.200,-1.039,1.672,0.125
2019-06-09-14:27:56.776466,0.821,-0.601,9.851,12.500,72.200,46.300,-0.539,3.562,-0.016
2019-06-09-14:27:56.796044,0.565,-0.246,10.356,12.600,72.900,46.600,-0.391,3.164,-0.055
2019-06-09-14:27:56.815545,0.739,-0.388,10.124,12.400,72.000,46.300,-0.766,2.109,-0.016
2019-06-09-14:27:56.834975,0.737,-0.438,9.942,13.200,71.100,46.000,-0.320,2.602,0.133
2019-06-09-14:27:56.854414,0.694,-0.345,10.263,12.200,71.300,47.300,-0.734,3.469,-0.094
2019-06-09-14:27:56.873847,0.672,-0.366,10.241,13.800,70.200,48.200,-1.055,2.734,0.055
2019-06-09-14:27:56.893270,0.766,-0.378,10.043,12.400,70.000,48.200,-0.875,3.023,-0.008
2019-06-09-14:27:56.912832,0.648,-0.416,10.158,13.200,69.600,47.200,-0.398,3.242,0.062
2019-06-09-14:27:56.932349,0.766,-0.316,10.131,13.000,69.700,47.100,-0.859,3.094,0.242
2019-06-09-14:27:56.954404,0.720,-0.306,10.098,13.500,69.300,46.300,-0.844,3.188,0.102
2019-06-09-14:27:56.974145,0.644,-0.378,10.272,12.300,68.500,47.400,-0.781,2.641,0.055
2019-06-09-14:27:56.993641,0.761,-0.361,10.083,12.300,68.300,46.400,-1.117,2.492,0.133
2019-06-09-14:27:57.013280,0.699,-0.459,10.028,13.200,66.900,46.300,-0.359,3.531,0.289
2019-06-09-14:27:57.032784,0.558,-0.266,10.318,12.200,68.000,45.600,-0.391,2.367,0.086
2019-06-09-14:27:57.052335,0.608,-0.249,9.901,12.700,67.400,47.600,-1.320,2.320,0.016
2019-06-09-14:27:57.071802,0.770,-0.412,9.904,11.500,68.300,47.400,-0.766,3.422,0.086
2019-06-09-14:27:57.091329,0.574,-0.299,10.074,11.100,69.600,47.300,-0.625,3.922,-0.047
2019-06-09-14:27:57.110836,0.569,-0.292,10.344,12.200,68.700,48.000,-1.000,2.516,0.281
2019-06-09-14:27:57.130306,0.627,-0.299,10.158,10.900,68.800,47.400,-0.555,1.758,0.078
2019-06-09-14:27:57.149743,0.778,-0.404,9.868,12.200,69.800,48.700,-0.336,3.461,0.195
2019-06-09-14:27:57.169163,0.639,-0.333,10.119,12.600,69.400,46.900,-0.422,3.406,-0.086
2019-06-09-14:27:57.188601,0.586,-0.256,10.225,11.500,70.100,48.500,-0.945,2.906,0.016
2019-06-09-14:27:57.208046,0.706,-0.357,10.193,11.400,69.500,48.100,-0.938,2.070,0.148
2019-06-09-14:27:57.227649,0.732,-0.373,9.964,12.200,70.000,46.600,-0.594,2.430,0.188
2019-06-09-14:27:57.247096,0.648,-0.357,10.093,12.300,70.000,46.900,-0.633,3.594,-0.086
2019-06-09-14:27:57.266507,0.603,-0.280,10.205,12.500,69.300,46.300,-0.602,2.992,0.172
2019-06-09-14:27:57.285994,0.663,-0.318,10.129,11.400,69.600,47.200,-1.172,2.391,0.109
2019-06-09-14:27:57.305437,0.675,-0.380,10.186,11.600,69.300,47.100,-0.734,2.586,0.109
2019-06-09-14:27:57.324974,0.766,-0.275,9.957,11.100,69.200,47.900,-1.055,3.156,0.062
2019-06-09-14:27:57.344413,0.608,-0.414,10.208,12.000,68.800,46.200,-0.820,3.609,0.266
2019-06-09-14:27:57.364380,0.641,-0.299,10.136,12.100,69.500,47.000,-0.844,3.031,0.172
2019-06-09-14:27:57.384046,0.723,-0.330,10.158,12.100,69.700,46.900,-0.336,3.289,0.156
2019-06-09-14:27:57.403527,0.608,-0.313,10.169,12.300,70.400,47.300,-0.703,2.836,0.016
2019-06-09-14:27:57.423027,0.656,-0.361,10.079,12.000,70.500,46.600,-0.797,2.914,-0.055
2019-06-09-14:27:57.442487,0.687,-0.347,10.174,11.400,69.800,47.100,-0.922,2.836,0.109
2019-06-09-14:27:57.461975,0.677,-0.301,10.091,12.400,70.300,47.800,-0.609,2.867,-0.008
2019-06-09-14:27:57.481621,0.507,-0.354,10.181,12.300,69.700,47.400,-0.820,1.891,0.023
2019-06-09-14:27:57.501170,0.751,-0.270,9.935,11.800,69.900,47.100,-0.781,2.898,0.305
2019-06-09-14:27:57.520615,0.742,-0.311,10.100,12.100,69.700,46.700,-0.703,3.250,-0.203
2019-06-09-14:27:57.540115,0.536,-0.280,10.181,11.600,69.100,46.800,-0.617,2.469,0.109
2019-06-09-14:27:57.559626,0.682,-0.337,10.074,12.100,69.200,47.300,-0.922,2.516,0.125
2019-06-09-14:27:57.579067,0.732,-0.345,10.031,11.100,69.900,48.200,-0.930,3.266,0.180
2019-06-09-14:27:57.598484,0.625,-0.309,10.150,12.100,69.200,46.300,-0.859,3.109,-0.023
2019-06-09-14:27:57.617907,0.646,-0.323,10.131,11.300,68.900,46.500,-0.586,2.234,0.016
2019-06-09-14:27:57.637381,0.715,-0.347,10.019,11.600,69.400,47.200,-0.711,2.617,0.078
2019-06-09-14:27:57.656815,0.656,-0.318,10.138,12.300,69.300,47.100,-0.492,2.992,0.258
2019-06-09-14:27:57.676262,0.636,-0.292,10.146,11.600,70.100,47.400,-1.352,2.547,-0.055
2019-06-09-14:27:57.695699,0.684,-0.349,10.069,12.400,70.200,47.300,-0.781,2.445,0.109
2019-06-09-14:27:57.715224,0.692,-0.345,10.098,12.000,70.600,47.600,-1.023,3.078,0.148
2019-06-09-14:27:57.736712,0.646,-0.304,10.167,12.000,69.500,49.700,-0.844,2.914,-0.047
2019-06-09-14:27:57.756219,0.675,-0.321,10.093,12.700,68.900,47.900,-0.883,2.672,0.211
2019-06-09-14:27:57.775644,0.694,-0.354,10.091,12.100,70.200,44.800,-0.539,2.961,0.234
2019-06-09-14:27:57.795063,0.641,-0.323,10.158,11.600,69.800,47.900,-0.562,2.883,0.055
2019-06-09-14:27:57.814467,0.668,-0.335,10.155,12.300,70.000,47.900,-1.055,2.836,0.234
2019-06-09-14:27:57.833912,0.684,-0.354,10.117,11.100,69.900,46.900,-1.195,2.578,0.031
2019-06-09-14:27:57.853337,0.665,-0.340,10.134,12.000,69.000,46.800,-1.273,2.906,0.148
2019-06-09-14:27:57.872780,0.632,-0.290,10.117,12.000,69.500,47.600,-0.867,2.625,-0.070
2019-06-09-14:27:57.892287,0.668,-0.301,10.079,11.900,69.100,46.400,-0.914,2.797,-0.070
2019-06-09-14:27:57.911751,0.684,-0.318,10.047,12.100,69.100,47.700,-0.969,2.961,0.148
2019-06-09-14:27:57.931253,0.636,-0.299,10.088,12.900,69.700,46.000,-0.781,2.930,0.172
2019-06-09-14:27:57.950803,0.653,-0.292,10.105,12.100,69.600,48.100,-0.984,2.523,-0.008
2019-06-09-14:27:57.970337,0.703,-0.304,10.045,12.300,69.500,48.100,-0.703,2.812,0.156
2019-06-09-14:27:57.989787,0.658,-0.294,10.079,12.700,70.000,46.800,-0.734,3.055,-0.094
2019-06-09-14:27:58.009230,0.648,-0.297,10.114,11.300,69.800,48.700,-0.398,2.672,0.055
2019-06-09-14:27:58.028658,0.687,-0.287,10.064,12.000,69.200,46.400,-0.711,2.734,0.211
2019-06-09-14:27:58.048144,0.675,-0.309,10.069,13.000,69.900,47.600,-0.977,3.008,0.125
2019-06-09-14:27:58.067762,0.651,-0.299,10.114,12.600,69.900,46.900,-0.953,2.688,0.188
2019-06-09-14:27:58.087209,0.668,-0.313,10.079,12.600,69.200,47.800,-0.539,2.844,0.008
2019-06-09-14:27:58.106622,0.680,-0.316,10.057,12.800,70.400,47.800,-0.656,2.930,0.055
2019-06-09-14:27:58.126136,0.651,-0.304,10.095,11.700,69.500,47.300,-1.008,2.852,-0.078
2019-06-09-14:27:58.145618,0.656,-0.304,10.083,12.900,69.100,47.700,-0.969,2.711,0.289
2019-06-09-14:27:58.165459,0.677,-0.318,10.057,12.500,69.800,48.500,-0.773,2.820,0.148
2019-06-09-14:27:58.185007,0.651,-0.316,10.105,11.700,68.600,47.600,-0.617,2.844,0.055
2019-06-09-14:27:58.204506,0.651,-0.309,10.105,11.800,70.100,47.000,-0.812,3.039,-0.008
2019-06-09-14:27:58.224022,0.658,-0.313,10.098,12.400,69.600,46.000,-0.797,2.648,-0.164
2019-06-09-14:27:58.243479,0.672,-0.359,10.062,11.800,68.900,46.700,-0.852,2.773,0.211
2019-06-09-14:27:58.262965,0.651,-0.313,10.129,12.400,69.300,47.700,-1.016,2.930,0.375
2019-06-09-14:27:58.282449,0.668,-0.316,10.124,12.400,69.600,47.200,-0.617,2.500,0.039
2019-06-09-14:27:58.301898,0.663,-0.323,10.095,13.200,68.900,46.900,-0.781,2.859,0.062
2019-06-09-14:27:58.321462,0.668,-0.318,10.105,12.500,69.700,47.200,-0.812,2.773,0.055
2019-06-09-14:27:58.340912,0.646,-0.318,10.124,12.500,69.500,46.300,-1.023,2.953,-0.117
2019-06-09-14:27:58.360413,0.665,-0.321,10.100,12.800,69.300,47.400,-0.922,2.844,-0.164
2019-06-09-14:27:58.379880,0.658,-0.323,10.091,12.200,69.100,48.000,-0.664,2.836,0.328
2019-06-09-14:27:58.399383,0.660,-0.306,10.102,12.000,68.400,47.200,-1.109,3.078,0.086
2019-06-09-14:27:58.418815,0.660,-0.316,10.091,13.600,69.600,48.500,-0.875,2.664,0.133
2019-06-09-14:27:58.438235,0.670,-0.306,10.093,11.700,68.400,47.500,-0.672,2.852,0.008
2019-06-09-14:27:58.457863,0.670,-0.328,10.091,11.900,68.900,47.800,-0.703,2.875,0.055
2019-06-09-14:27:58.477447,0.660,-0.316,10.110,11.200,69.400,45.300,-0.883,2.906,0.125
2019-06-09-14:27:58.496920,0.668,-0.325,10.083,12.400,69.300,47.900,-0.578,3.016,0.352
2019-06-09-14:27:58.516359,0.646,-0.323,10.086,12.300,69.200,48.100,-0.453,3.102,0.172
2019-06-09-14:27:58.535873,0.668,-0.299,10.093,11.600,68.500,47.900,-0.656,2.797,-0.211
2019-06-09-14:27:58.558382,0.672,-0.297,10.093,12.600,70.500,47.200,-0.945,2.797,0.242
2019-06-09-14:27:58.577943,0.668,-0.299,10.081,11.500,69.300,47.800,-0.750,2.812,0.188
2019-06-09-14:27:58.597382,0.663,-0.299,10.095,12.400,70.100,47.500,-0.812,2.812,0.195
2019-06-09-14:27:58.616801,0.665,-0.306,10.098,12.000,70.100,46.400,-0.750,2.945,0.172
2019-06-09-14:27:58.636310,0.660,-0.311,10.086,12.700,68.800,46.900,-0.727,3.039,-0.148
2019-06-09-14:27:58.655829,0.680,-0.299,10.088,13.100,69.000,48.000,-0.969,2.602,0.055
2019-06-09-14:27:58.675303,0.672,-0.304,10.093,12.000,69.900,46.800,-0.992,2.688,0.188
2019-06-09-14:27:58.694736,0.658,-0.309,10.100,12.100,69.100,47.700,-0.797,3.031,0.133
2019-06-09-14:27:58.714308,0.665,-0.342,10.079,11.800,69.600,47.600,-0.828,2.875,0.258
2019-06-09-14:27:58.733753,0.672,-0.361,10.146,12.700,70.100,46.700,-0.664,2.836,0.086
2019-06-09-14:27:58.753194,0.668,-0.347,10.131,12.100,68.900,49.800,-0.469,2.883,0.078
2019-06-09-14:27:58.772701,0.663,-0.345,10.129,12.600,68.600,47.500,-1.125,2.734,0.211
2019-06-09-14:27:58.792119,0.670,-0.345,10.124,12.500,69.800,47.800,-0.852,2.867,-0.055
2019-06-09-14:27:58.811629,0.670,-0.330,10.119,11.300,69.000,48.800,-0.695,2.648,-0.102
2019-06-09-14:27:58.831116,0.689,-0.342,10.114,11.400,69.600,47.700,-0.805,2.883,0.195
2019-06-09-14:27:58.850548,0.660,-0.342,10.134,12.700,68.200,48.300,-0.641,2.812,0.312
2019-06-09-14:27:58.870042,0.684,-0.328,10.134,12.200,68.400,47.400,-0.852,2.695,-0.094
2019-06-09-14:27:58.889562,0.656,-0.347,10.117,12.900,68.800,47.000,-0.562,2.875,0.195
2019-06-09-14:27:58.909019,0.672,-0.340,10.150,12.500,69.700,47.500,-0.945,2.797,0.109
2019-06-09-14:27:58.928434,0.668,-0.340,10.126,11.500,69.300,46.100,-0.664,2.734,0.188
2019-06-09-14:27:58.948007,0.670,-0.330,10.141,12.600,68.400,47.800,-0.406,2.656,-0.047
2019-06-09-14:27:58.967718,0.665,-0.335,10.119,12.000,68.800,46.600,-0.695,3.156,0.195
2019-06-09-14:27:58.987236,0.663,-0.330,10.110,12.700,68.700,46.500,-0.820,3.047,0.289
2019-06-09-14:27:59.006663,0.658,-0.335,10.112,13.400,69.000,47.100,-0.609,2.828,-0.008
2019-06-09-14:27:59.026098,0.670,-0.318,10.102,12.900,68.900,47.800,-0.891,2.953,-0.125
2019-06-09-14:27:59.045510,0.665,-0.323,10.110,12.500,69.800,46.600,-1.227,3.008,0.039
2019-06-09-14:27:59.064925,0.648,-0.318,10.119,12.500,68.200,46.500,-0.742,2.633,-0.078
2019-06-09-14:27:59.084423,0.665,-0.333,10.107,12.300,69.200,47.000,-0.922,2.711,0.242
2019-06-09-14:27:59.103845,0.675,-0.318,10.091,13.500,69.100,48.500,-0.367,2.844,0.055
2019-06-09-14:27:59.123269,0.660,-0.311,10.110,12.600,68.300,48.600,-0.805,2.820,0.242
2019-06-09-14:27:59.142671,0.644,-0.342,10.131,12.700,68.800,46.900,-0.633,2.797,0.195
2019-06-09-14:27:59.162091,0.677,-0.337,10.117,11.900,68.800,47.000,-1.211,2.812,0.125
2019-06-09-14:27:59.181670,0.672,-0.340,10.110,12.700,68.400,47.500,-0.812,3.203,0.250
2019-06-09-14:27:59.201188,0.670,-0.323,10.136,11.800,68.100,46.700,-0.898,2.906,0.031
2019-06-09-14:27:59.222607,0.677,-0.349,10.117,12.800,68.800,45.400,-0.758,2.734,0.172
2019-06-09-14:27:59.242147,0.684,-0.342,10.114,12.400,68.800,46.900,-0.977,2.711,0.234
2019-06-09-14:27:59.261679,0.675,-0.359,10.122,12.800,69.400,47.600,-1.078,2.836,0.133
2019-06-09-14:27:59.281166,0.672,-0.330,10.136,13.200,70.000,47.200,-0.945,2.758,0.078
2019-06-09-14:27:59.300583,0.665,-0.366,10.117,13.000,69.500,45.900,-1.414,2.555,0.258
2019-06-09-14:27:59.320058,0.672,-0.345,10.129,12.200,69.300,48.100,-0.820,2.938,-0.102
2019-06-09-14:27:59.339578,0.658,-0.366,10.122,13.000,68.800,46.300,-0.875,2.961,0.211
2019-06-09-14:27:59.361220,0.658,-0.347,10.141,11.900,69.900,46.400,-0.930,2.969,0.266
2019-06-09-14:27:59.384904,0.665,-0.337,10.162,12.100,67.700,45.900,-0.883,2.859,0.266
2019-06-09-14:27:59.405144,0.677,-0.337,10.124,12.900,69.500,47.500,-1.141,2.664,0.422
2019-06-09-14:27:59.424639,0.675,-0.349,10.131,11.900,68.600,46.700,-0.664,2.898,0.102
2019-06-09-14:27:59.444179,0.663,-0.345,10.114,12.400,68.500,47.300,-0.938,2.969,0.062
2019-06-09-14:27:59.463718,0.672,-0.335,10.129,12.700,68.800,46.700,-1.164,2.734,0.109
2019-06-09-14:27:59.483263,0.677,-0.352,10.129,11.900,69.000,47.100,-0.805,2.758,-0.102
2019-06-09-14:27:59.502754,0.648,-0.352,10.110,12.600,69.400,46.800,-0.906,2.930,0.242
2019-06-09-14:27:59.522165,0.672,-0.345,10.134,11.600,68.700,46.400,-0.992,2.812,0.125
2019-06-09-14:27:59.541660,0.677,-0.335,10.112,12.500,70.400,46.300,-0.930,2.773,0.281
2019-06-09-14:27:59.561209,0.651,-0.333,10.117,11.800,69.100,46.600,-0.914,3.031,0.328
2019-06-09-14:27:59.580648,0.653,-0.349,10.134,12.600,69.300,45.900,-1.055,2.945,0.109
2019-06-09-14:27:59.600029,0.665,-0.328,10.112,12.400,69.100,47.300,-1.000,2.602,0.125
2019-06-09-14:27:59.619487,0.672,-0.347,10.100,11.700,69.500,46.100,-0.953,2.844,0.102
2019-06-09-14:27:59.638849,0.663,-0.342,10.107,12.100,68.900,46.300,-0.852,2.883,0.109
2019-06-09-14:27:59.658200,0.653,-0.321,10.122,12.800,70.200,46.900,-0.867,2.867,0.008
2019-06-09-14:27:59.677660,0.663,-0.342,10.095,12.300,69.000,48.100,-1.055,2.641,0.188
2019-06-09-14:27:59.697102,0.663,-0.330,10.107,11.800,70.100,45.400,-0.781,2.820,0.102
2019-06-09-14:27:59.716487,0.656,-0.330,10.126,12.800,69.300,47.300,-1.258,2.859,0.039
2019-06-09-14:27:59.735952,0.677,-0.337,10.119,11.100,68.900,46.800,-0.805,2.688,0.195
2019-06-09-14:27:59.758703,0.675,-0.330,10.102,10.900,68.600,46.200,-0.789,2.898,0.133
2019-06-09-14:27:59.778261,0.665,-0.328,10.107,12.000,69.100,46.800,-0.398,2.945,0.188
2019-06-09-14:27:59.797793,0.675,-0.311,10.114,10.800,68.800,45.500,-0.945,2.836,0.031
