Time,Acceleration X (m/s^2),Acceleration Y (m/s^2),Acceleration Z (m/s^2),Magnetometer X (uTesla), Magnetometer Y (uTesla)  , Magnetometer Z (uTesla),Gyroscope X (radians/s), Gyroscope Y (radians/s), Gyroscope Z (radians/s)
2019-05-26-01:54:27.123251,0.347,-0.201,10.114,-57.200,69.800,26.400,-1.156,2.883,-0.008
2019-05-26-01:54:27.228958,0.342,-0.203,10.105,-58.500,70.000,24.000,-1.312,2.797,0.086
2019-05-26-01:54:27.334656,0.340,-0.191,10.136,-58.400,69.700,24.900,-1.023,2.844,-0.414
2019-05-26-01:54:27.440249,0.333,-0.179,10.124,-57.500,70.300,26.300,-0.820,2.719,-0.078
2019-05-26-01:54:27.547701,0.352,-0.189,10.153,-57.900,70.200,25.400,-0.672,2.648,-0.430
2019-05-26-01:54:27.657667,0.349,-0.220,10.155,-57.800,69.900,26.100,-0.828,2.539,0.109
2019-05-26-01:54:27.767297,0.325,-0.211,10.131,-58.200,70.600,25.400,-1.133,2.547,-0.117
2019-05-26-01:54:27.877158,0.318,-0.196,10.136,-57.500,70.800,26.300,-1.047,2.891,-0.078
2019-05-26-01:54:27.986797,0.337,-0.196,10.107,-57.300,71.000,25.300,-1.219,2.844,0.031
2019-05-26-01:54:28.096828,0.349,-0.201,10.100,-58.100,69.100,25.000,-0.930,2.453,0.055
2019-05-26-01:54:28.206544,0.349,-0.199,10.134,-57.700,70.200,26.200,-0.867,2.672,-0.250
2019-05-26-01:54:28.316205,0.328,-0.215,10.122,-58.100,70.600,25.800,-0.938,2.523,-0.250
2019-05-26-01:54:28.426004,0.309,-0.206,10.158,-58.100,70.300,26.600,-1.602,2.531,0.078
2019-05-26-01:54:28.535882,0.325,-0.203,10.122,-57.700,70.800,25.500,-0.875,2.695,-0.141
2019-05-26-01:54:28.645531,0.318,-0.189,10.119,-57.000,70.900,24.200,-1.445,2.586,-0.180
2019-05-26-01:54:28.755141,0.330,-0.206,10.131,-58.900,70.700,25.900,-0.625,2.719,-0.102
2019-05-26-01:54:28.865150,0.316,-0.199,10.136,-57.600,69.400,25.200,-0.891,2.953,-0.117
2019-05-26-01:54:28.974798,0.345,-0.208,10.107,-57.600,70.300,24.700,-0.750,2.688,0.102
2019-05-26-01:54:29.084421,0.328,-0.194,10.129,-57.300,70.300,25.600,-1.211,2.711,-0.078
2019-05-26-01:54:29.193968,0.337,-0.191,10.131,-57.500,70.400,24.900,-0.984,2.680,-0.102
2019-05-26-01:54:29.303862,0.328,-0.196,10.107,-56.900,69.200,24.900,-0.602,2.758,-0.055
2019-05-26-01:54:29.413760,0.311,-0.199,10.136,-57.400,69.400,25.300,-1.023,2.867,-0.055
2019-05-26-01:54:29.527909,0.333,-0.201,10.107,-57.500,69.900,24.600,-1.180,2.844,-0.148
2019-05-26-01:54:29.637899,0.352,-0.182,10.134,-57.700,70.200,26.700,-1.117,2.758,-0.359
2019-05-26-01:54:29.747745,0.330,-0.191,10.131,-58.300,71.000,25.100,-1.367,3.000,-0.008
2019-05-26-01:54:29.857491,0.335,-0.208,10.141,-58.100,69.400,25.700,-1.016,2.711,-0.008
2019-05-26-01:54:29.967166,0.316,-0.208,10.138,-57.900,70.500,26.700,-1.336,2.828,-0.180
2019-05-26-01:54:30.077162,0.349,-0.194,10.091,-56.700,70.000,24.900,-1.211,2.672,-0.203
2019-05-26-01:54:30.186857,0.340,-0.191,10.105,-59.100,69.600,25.300,-0.945,2.852,-0.125
2019-05-26-01:54:30.296657,0.352,-0.196,10.129,-57.500,68.800,24.000,-0.766,2.781,-0.211
2019-05-26-01:54:30.406444,0.340,-0.201,10.129,-58.200,70.100,24.200,-1.016,2.875,0.031
2019-05-26-01:54:30.516522,0.323,-0.206,10.112,-57.000,70.300,25.700,-1.289,2.766,-0.117
2019-05-26-01:54:30.626156,0.323,-0.199,10.112,-57.500,70.000,25.900,-1.383,2.734,-0.586
2019-05-26-01:54:30.735979,0.330,-0.187,10.100,-58.100,70.100,24.400,-0.891,2.680,-0.141
2019-05-26-01:54:30.845766,0.352,-0.196,10.110,-58.800,70.200,24.700,-1.094,2.648,-0.234
2019-05-26-01:54:30.955414,0.352,-0.199,10.119,-57.800,69.800,24.400,-1.211,2.609,-0.047
2019-05-26-01:54:31.065014,0.342,-0.203,10.122,-57.000,70.800,24.900,-1.070,2.680,-0.023
2019-05-26-01:54:31.174560,0.337,-0.203,10.124,-57.800,71.600,25.900,-0.602,2.852,-0.281
2019-05-26-01:54:31.284603,0.371,-0.163,10.141,-58.100,70.700,24.300,-1.414,2.539,0.211
2019-05-26-01:54:31.394510,0.359,-0.167,10.107,-58.200,70.000,23.700,-1.070,2.797,-0.031
2019-05-26-01:54:31.504564,0.333,-0.194,10.148,-57.100,69.300,25.100,-1.195,2.820,0.031
2019-05-26-01:54:31.614304,0.323,-0.220,10.126,-58.400,69.800,24.300,-1.195,2.555,0.062
2019-05-26-01:54:31.724427,0.328,-0.179,10.086,-58.200,71.300,26.300,-1.195,2.797,0.062
2019-05-26-01:54:31.834287,0.316,-0.165,10.124,-57.500,70.400,24.500,-1.297,2.445,0.055
2019-05-26-01:54:31.945858,0.357,-0.215,10.143,-58.000,70.800,24.400,-1.094,2.586,0.039
2019-05-26-01:54:32.055498,0.328,-0.220,10.126,-57.500,70.000,25.700,-1.070,2.609,-0.055
2019-05-26-01:54:32.165044,0.297,-0.309,10.131,-58.000,71.300,25.100,-0.680,2.742,-0.305
2019-05-26-01:54:32.279448,0.340,-0.196,10.091,-57.400,69.600,26.100,-1.406,2.398,-0.320
2019-05-26-01:54:32.389224,0.301,-0.182,10.160,-57.200,70.700,24.100,-0.922,2.742,-0.148
2019-05-26-01:54:32.499253,0.376,-0.184,10.122,-58.000,70.000,25.000,-0.828,2.719,-0.094
2019-05-26-01:54:32.609007,0.311,-0.175,10.069,-58.400,70.200,24.900,-0.984,2.781,-0.117
2019-05-26-01:54:32.718603,0.330,-0.246,10.129,-57.700,70.000,24.100,-1.312,2.938,-0.188
2019-05-26-01:54:32.828377,0.347,-0.179,10.050,-56.600,68.600,22.900,-0.984,2.805,-0.234
2019-05-26-01:54:32.938437,0.352,-0.163,10.117,-56.900,70.000,22.600,-0.867,2.891,-0.125
2019-05-26-01:54:33.048075,0.318,-0.132,10.059,-57.900,69.500,21.500,-1.328,2.594,-0.148
2019-05-26-01:54:33.157743,0.452,-0.251,10.303,-58.000,71.000,25.200,-1.188,2.633,-0.234
2019-05-26-01:54:33.267364,0.354,-0.261,10.107,-56.800,70.000,24.100,-1.016,2.969,-0.164
2019-05-26-01:54:33.377206,0.342,-0.074,10.014,-57.400,70.400,24.000,-0.969,2.852,-0.453
2019-05-26-01:54:33.487038,0.400,-0.105,10.126,-57.900,70.100,25.600,-1.312,2.547,-0.117
2019-05-26-01:54:33.596721,0.301,-0.227,10.131,-57.600,70.400,25.200,-1.250,2.781,-0.125
2019-05-26-01:54:33.706790,0.361,-0.258,10.232,-56.100,69.600,24.700,-0.586,2.906,0.102
2019-05-26-01:54:33.816601,0.368,-0.215,10.136,-56.800,69.500,24.200,-0.891,2.742,-0.117
2019-05-26-01:54:33.926398,0.335,-0.223,10.110,-57.300,68.400,23.700,-0.898,2.758,-0.008
2019-05-26-01:54:34.036494,0.335,-0.156,10.143,-53.500,67.500,20.200,-0.961,2.656,-0.047
2019-05-26-01:54:34.146519,0.313,-0.215,10.102,-46.400,58.700,7.500,-1.445,2.766,-0.094
2019-05-26-01:54:34.256152,0.352,-0.177,10.062,-40.000,53.700,3.700,-0.867,2.570,-0.164
2019-05-26-01:54:34.366035,0.292,-0.232,10.138,-41.200,52.500,5.900,-1.867,2.773,0.133
2019-05-26-01:54:34.476089,0.440,-0.175,10.110,-35.200,48.900,5.000,-4.953,3.156,0.219
2019-05-26-01:54:34.585814,0.364,-0.184,10.260,-33.500,46.200,5.100,0.242,2.883,-0.047
2019-05-26-01:54:34.695435,0.297,-0.163,10.055,-28.700,39.800,3.700,-1.414,2.617,0.062
2019-05-26-01:54:34.805064,0.335,-0.191,10.095,-24.400,31.300,4.400,-3.516,2.312,-0.391
2019-05-26-01:54:34.915069,0.340,-0.196,10.256,-18.000,18.900,2.600,-1.844,2.844,-0.047
2019-05-26-01:54:35.024757,0.323,-0.203,10.031,-14.500,11.900,2.500,-1.188,2.758,0.195
2019-05-26-01:54:35.134505,0.342,-0.225,10.177,-11.000,6.800,2.700,-1.180,2.594,-0.203
2019-05-26-01:54:35.250578,0.311,-0.182,10.112,-9.200,5.000,1.600,-0.742,2.734,-0.094
2019-05-26-01:54:35.360450,0.323,-0.184,10.107,-9.100,3.900,1.000,-0.719,2.914,-0.227
2019-05-26-01:54:35.470123,0.357,-0.187,10.138,-9.700,5.300,0.400,-1.453,2.883,-0.211
2019-05-26-01:54:35.579714,0.333,-0.199,10.122,-11.300,7.000,2.300,-1.047,2.781,-0.297
2019-05-26-01:54:35.689347,0.342,-0.170,10.124,-16.100,11.000,2.400,-1.289,2.617,0.031
2019-05-26-01:54:35.798961,0.328,-0.201,10.122,-17.500,16.900,-1.500,-0.852,2.883,-0.008
2019-05-26-01:54:35.908622,0.345,-0.194,10.119,-18.700,21.800,-2.200,-1.062,2.695,-0.234
2019-05-26-01:54:36.018245,0.321,-0.191,10.112,-19.300,26.700,-3.100,-1.266,2.500,0.008
2019-05-26-01:54:36.128164,0.345,-0.194,10.150,-18.700,31.000,-3.900,-1.016,2.969,0.195
2019-05-26-01:54:36.237828,0.318,-0.184,10.131,-18.600,31.200,-4.200,-1.383,2.422,-0.297
2019-05-26-01:54:36.347569,0.328,-0.199,10.143,-19.800,32.400,-4.000,-0.891,2.648,-0.125
2019-05-26-01:54:36.462561,0.318,-0.187,10.114,-20.900,32.300,-6.300,-1.008,2.867,-0.078
2019-05-26-01:54:36.572199,0.347,-0.191,10.122,-20.500,30.800,-6.500,-1.078,2.875,0.031
2019-05-26-01:54:36.681801,0.337,-0.199,10.131,-21.600,28.000,-4.200,-0.656,2.828,-0.203
2019-05-26-01:54:36.791558,0.321,-0.191,10.102,-20.500,28.000,-3.400,-1.156,2.805,-0.102
2019-05-26-01:54:36.901260,0.328,-0.211,10.138,-20.000,26.700,-2.700,-1.078,2.836,0.039
2019-05-26-01:54:37.010942,0.335,-0.225,10.014,-20.000,28.100,-1.800,-0.883,3.125,-0.070
2019-05-26-01:54:37.120651,0.328,-0.191,10.112,-19.300,28.600,-0.900,-0.781,2.508,-0.117
2019-05-26-01:54:37.230128,0.311,-0.227,10.117,-18.800,29.000,0.400,-1.055,2.703,0.039
2019-05-26-01:54:37.344438,0.368,-0.201,10.098,-17.100,28.100,5.700,-1.227,2.562,-0.203
2019-05-26-01:54:37.454002,0.364,-0.182,10.100,-15.300,25.800,8.800,-1.039,2.938,-0.102
2019-05-26-01:54:37.563817,0.318,-0.191,10.143,-13.300,25.000,11.100,-0.617,2.688,0.078
2019-05-26-01:54:37.673818,0.304,-0.196,10.134,-14.600,27.100,10.200,-0.766,2.734,-0.023
2019-05-26-01:54:37.783611,0.321,-0.184,10.102,-18.000,29.600,2.000,-0.945,2.914,-0.359
2019-05-26-01:54:37.893342,0.318,-0.189,10.117,-23.900,25.000,-4.700,-1.266,2.820,-0.055
2019-05-26-01:54:38.002912,0.335,-0.189,10.126,-23.200,16.100,-3.800,-0.828,2.781,-0.117
2019-05-26-01:54:38.112487,0.325,-0.179,10.112,-20.600,9.400,-3.200,-0.906,2.773,0.172
2019-05-26-01:54:38.221961,0.337,-0.213,10.076,-15.100,3.300,-2.600,-0.492,2.836,0.172
2019-05-26-01:54:38.331564,0.337,-0.189,10.143,-12.700,0.300,0.200,-1.180,2.891,-0.031
2019-05-26-01:54:38.441119,0.256,-0.148,10.043,-11.100,0.500,0.200,-1.117,2.703,0.031
2019-05-26-01:54:38.551090,0.368,-0.239,10.217,-11.300,-1.100,0.500,-0.562,2.797,-0.047
2019-05-26-01:54:38.660732,0.318,-0.182,10.093,-12.800,-0.400,-1.000,-0.938,2.594,-0.281
2019-05-26-01:54:38.770246,0.357,-0.220,10.122,-12.700,-1.500,-1.800,-1.141,2.820,-0.164
2019-05-26-01:54:38.880191,0.333,-0.134,10.126,-16.300,-0.700,-3.300,-1.008,2.594,-0.125
2019-05-26-01:54:38.989762,0.316,-0.179,10.179,-21.200,0.600,-5.500,-1.164,2.438,-0.031
2019-05-26-01:54:39.099424,0.376,-0.206,10.191,-24.400,6.500,-7.300,-0.992,2.938,-0.148
2019-05-26-01:54:39.209073,0.335,-0.187,10.143,-27.700,14.200,-5.200,-0.680,2.914,-0.258
2019-05-26-01:54:39.318647,0.299,-0.191,10.112,-24.800,20.000,1.700,-1.008,2.758,-0.125
2019-05-26-01:54:39.428507,0.340,-0.201,10.131,-21.600,22.300,11.600,-0.945,2.727,0.195
2019-05-26-01:54:39.538287,0.325,-0.187,10.129,-19.000,23.100,18.600,-0.992,2.844,-0.203
2019-05-26-01:54:39.647904,0.345,-0.220,10.129,-17.100,24.200,22.200,-1.312,2.656,-0.102
2019-05-26-01:54:39.757820,0.316,-0.194,10.112,-16.300,31.300,22.300,-1.016,2.570,-0.273
2019-05-26-01:54:39.867767,0.323,-0.201,10.114,-15.700,45.300,29.200,-0.945,2.656,-0.031
2019-05-26-01:54:39.977349,-0.089,-0.266,10.976,-15.900,58.200,42.200,-0.242,3.211,-0.195
2019-05-26-01:54:40.087350,0.352,-0.031,10.306,-15.300,59.400,47.400,-0.641,3.211,-0.250
2019-05-26-01:54:40.196933,0.311,-0.234,10.155,-13.900,56.200,47.600,-1.234,2.672,-0.117
2019-05-26-01:54:40.315907,0.309,-0.146,10.141,-15.600,48.600,55.900,-1.000,2.578,0.031
2019-05-26-01:54:40.425658,0.349,-0.218,9.887,-14.400,37.800,63.900,-1.141,3.125,-0.273
2019-05-26-01:54:40.535550,0.371,-0.163,10.093,-13.200,36.300,65.300,-0.781,3.109,-0.453
2019-05-26-01:54:40.645142,0.383,-0.151,9.727,-14.200,36.900,66.100,-0.586,2.672,-0.359
2019-05-26-01:54:40.754616,0.347,-0.148,9.990,-13.600,35.700,67.900,-1.094,2.422,-0.258
2019-05-26-01:54:40.870617,0.335,-0.237,10.270,-13.100,35.500,67.500,-1.000,2.664,0.109
2019-05-26-01:54:40.980203,0.309,-0.196,10.102,-14.700,36.200,66.100,-0.680,2.641,0.109
2019-05-26-01:54:41.089747,0.349,-0.175,10.119,-13.800,35.200,66.400,-0.852,2.594,-0.203
2019-05-26-01:54:41.199256,0.318,-0.203,10.112,-14.100,34.300,67.400,-1.102,2.469,0.031
2019-05-26-01:54:41.309207,0.347,-0.208,10.136,-13.900,35.500,67.400,-1.109,2.820,-0.148
2019-05-26-01:54:41.419012,0.335,-0.199,10.112,-13.900,35.500,67.300,-0.594,2.797,0.031
2019-05-26-01:54:41.528859,0.349,-0.196,10.119,-13.900,35.900,66.900,-0.992,2.672,-0.023
2019-05-26-01:54:41.638445,0.325,-0.206,10.143,-13.900,35.400,65.900,-0.938,2.742,-0.031
2019-05-26-01:54:41.748004,0.309,-0.191,10.107,-14.300,35.500,67.700,-0.938,2.797,-0.125
2019-05-26-01:54:41.857829,0.335,-0.196,10.146,-13.600,35.500,67.700,-1.312,2.539,-0.328
2019-05-26-01:54:41.967404,0.330,-0.206,10.117,-13.400,35.200,66.500,-1.117,2.484,-0.094
2019-05-26-01:54:42.077340,0.328,-0.179,10.112,-14.300,35.400,68.300,-0.852,2.898,0.133
2019-05-26-01:54:42.187099,0.318,-0.211,10.138,-13.900,35.200,68.100,-1.117,2.523,-0.141
2019-05-26-01:54:42.297096,0.438,-0.285,10.146,-13.700,35.000,66.000,-0.922,2.820,1.289
2019-05-26-01:54:42.407109,-0.330,-0.084,10.083,-15.400,34.700,66.600,-0.852,2.555,-1.234
2019-05-26-01:54:42.517186,1.043,0.299,10.119,-21.900,29.500,65.200,0.328,2.773,-22.484
2019-05-26-01:54:42.626820,0.974,0.184,10.189,-26.600,24.600,62.400,-1.664,2.289,-4.828
2019-05-26-01:54:42.736405,0.536,-0.378,10.179,-33.400,20.000,59.500,2.539,2.344,13.883
2019-05-26-01:54:42.846265,0.605,-0.237,10.138,-42.000,15.200,48.800,-3.266,3.281,8.391
2019-05-26-01:54:42.956102,0.983,-0.158,10.114,-46.500,9.200,35.800,0.812,2.359,-6.297
2019-05-26-01:54:43.065657,0.335,-0.282,10.117,-45.600,3.200,22.500,-0.008,2.414,-2.281
2019-05-26-01:54:43.175208,0.146,-0.546,10.069,-42.900,-2.700,10.400,-1.062,2.750,-2.297
2019-05-26-01:54:43.285148,0.790,-0.321,10.126,-38.800,-6.700,0.900,-1.312,2.812,-3.883
2019-05-26-01:54:43.394910,0.462,-0.187,10.143,-38.400,-7.400,-0.200,-1.086,2.766,-9.281
2019-05-26-01:54:43.504698,0.237,-0.234,10.119,-40.200,-7.400,-1.000,-1.031,2.766,-6.242
2019-05-26-01:54:43.614476,-0.182,-0.273,10.134,-39.800,-7.300,0.900,-1.633,2.883,7.609
2019-05-26-01:54:43.724600,0.024,-0.167,10.122,-35.500,-7.500,-5.600,-1.289,2.828,14.945
2019-05-26-01:54:43.834443,0.806,-0.400,10.196,-22.200,-10.800,-16.000,-1.656,2.789,6.625
2019-05-26-01:54:43.944031,0.450,-0.419,10.119,-17.300,-9.500,-19.200,-1.148,2.586,6.961
2019-05-26-01:54:44.053548,1.048,0.153,10.138,-12.300,-8.200,-21.000,-1.086,2.836,-3.031
2019-05-26-01:54:44.163060,0.885,-0.132,10.107,-14.900,-8.800,-20.400,-0.938,2.797,-10.492
2019-05-26-01:54:44.272652,0.251,-0.301,10.138,-23.000,-9.900,-17.700,-0.672,2.922,-16.547
2019-05-26-01:54:44.382489,0.199,-0.206,10.114,-28.000,-10.600,-13.800,-0.680,2.555,-12.430
2019-05-26-01:54:44.492610,0.072,-0.337,10.088,-30.900,-8.100,-11.800,-0.742,2.695,8.172
2019-05-26-01:54:44.602373,0.218,-0.424,10.093,-31.700,-9.300,-11.000,-0.875,3.039,3.375
2019-05-26-01:54:44.711912,0.282,-0.167,10.124,-32.000,-8.800,-11.200,0.234,2.641,1.117
2019-05-26-01:54:44.821437,0.392,-0.041,10.112,-34.300,-8.500,-8.700,-0.781,2.422,6.359
2019-05-26-01:54:44.931411,0.366,-0.211,10.148,-34.300,-7.700,-8.400,-1.164,2.797,-0.078
2019-05-26-01:54:45.040988,0.337,-0.179,10.124,-34.900,-7.900,-7.400,-0.961,2.633,-1.805
2019-05-26-01:54:45.150460,0.349,-0.220,10.131,-34.200,-7.500,-7.100,-0.648,2.711,-0.344
2019-05-26-01:54:45.260009,0.342,-0.211,10.126,-34.600,-7.700,-7.000,-1.508,2.367,-0.297
2019-05-26-01:54:45.369770,0.340,-0.203,10.114,-34.200,-7.600,-7.900,-1.336,2.484,-0.078
2019-05-26-01:54:45.479462,0.335,-0.196,10.134,-34.300,-7.700,-7.800,-0.984,2.633,-0.031
2019-05-26-01:54:45.589163,0.330,-0.213,10.134,-34.900,-7.400,-7.700,-1.469,2.680,-0.094
2019-05-26-01:54:45.699158,0.321,-0.206,10.095,-33.900,-6.800,-7.500,-1.203,2.852,-0.164
2019-05-26-01:54:45.808872,0.333,-0.215,10.136,-34.900,-6.500,-7.000,-0.992,2.648,0.031
2019-05-26-01:54:45.918644,0.321,-0.218,10.110,-33.900,-8.700,-8.800,-1.352,2.844,-0.227
2019-05-26-01:54:46.028195,0.328,-0.213,10.119,-33.300,-7.100,-8.600,-1.117,2.805,-0.180
2019-05-26-01:54:46.138138,0.330,-0.206,10.143,-34.100,-7.300,-8.500,-1.133,2.719,-0.125
2019-05-26-01:54:46.247735,0.335,-0.201,10.091,-34.700,-7.600,-7.300,-0.727,2.797,-0.047
2019-05-26-01:54:46.357460,0.359,-0.203,10.131,-34.100,-6.900,-6.900,-1.211,2.805,-0.047
2019-05-26-01:54:46.467135,0.321,-0.215,10.119,-34.300,-6.600,-8.800,-0.992,2.711,-0.227
2019-05-26-01:54:46.576949,0.349,-0.206,10.129,-34.300,-7.200,-9.100,-0.867,2.672,-0.180
2019-05-26-01:54:46.686629,0.347,-0.203,10.117,-33.800,-7.000,-8.600,-0.656,2.758,-0.227
2019-05-26-01:54:46.796174,0.318,-0.213,10.114,-34.900,-6.900,-8.400,-0.844,2.797,-0.188
2019-05-26-01:54:46.906237,0.333,-0.196,10.124,-34.600,-7.000,-7.000,-0.898,2.969,0.008
2019-05-26-01:54:47.015902,0.335,-0.218,10.122,-34.900,-6.800,-8.400,-1.109,2.656,-0.211
2019-05-26-01:54:47.125416,0.342,-0.203,10.105,-34.800,-6.700,-7.800,-1.188,2.648,-0.148
2019-05-26-01:54:47.234996,0.347,-0.223,10.143,-34.200,-8.300,-8.700,-1.008,2.766,-0.023
2019-05-26-01:54:47.344900,0.309,-0.218,10.124,-33.900,-7.300,-8.500,-0.891,2.625,-0.211
2019-05-26-01:54:47.454512,0.330,-0.194,10.114,-34.100,-7.100,-9.100,-1.109,2.633,-0.227
2019-05-26-01:54:47.570332,0.325,-0.196,10.091,-34.500,-7.500,-7.600,-0.914,2.828,-0.055
2019-05-26-01:54:47.679913,0.325,-0.201,10.117,-35.000,-8.000,-6.500,-0.984,2.586,-0.023
2019-05-26-01:54:47.789426,0.330,-0.206,10.129,-34.700,-6.800,-7.600,-1.016,2.633,-0.125
2019-05-26-01:54:47.899106,0.325,-0.194,10.119,-34.600,-9.000,-6.900,-0.812,2.922,0.039
2019-05-26-01:54:48.008804,0.361,-0.199,10.136,-34.000,-8.200,-7.700,-1.047,2.617,0.195
2019-05-26-01:54:48.118874,0.345,-0.211,10.107,-34.300,-7.700,-7.500,-1.047,2.633,-0.164
2019-05-26-01:54:48.228476,0.345,-0.199,10.129,-35.000,-7.000,-8.800,-0.945,2.594,0.008
2019-05-26-01:54:48.338124,0.342,-0.211,10.126,-34.000,-7.000,-8.700,-0.984,2.422,-0.148
2019-05-26-01:54:48.447776,0.347,-0.213,10.102,-34.000,-7.100,-8.200,-0.961,2.609,-0.211
2019-05-26-01:54:48.557772,0.359,-0.203,10.129,-34.400,-7.200,-9.400,-0.938,2.852,-0.117
2019-05-26-01:54:48.667391,0.333,-0.208,10.136,-35.200,-7.700,-7.900,-0.930,2.898,0.086
2019-05-26-01:54:48.779145,0.357,-0.208,10.153,-34.500,-7.500,-7.500,-0.945,2.672,-0.102
2019-05-26-01:54:48.889005,0.323,-0.215,10.146,-34.000,-7.000,-8.700,-1.094,2.508,-0.203
2019-05-26-01:54:48.999708,0.330,-0.199,10.095,-34.500,-7.200,-7.300,-1.094,2.633,-0.094
2019-05-26-01:54:49.109790,0.349,-0.203,10.153,-34.300,-8.800,-7.600,-1.062,2.625,-0.055
2019-05-26-01:54:49.219511,0.349,-0.208,10.136,-34.100,-7.100,-8.700,-1.117,2.633,-0.391
2019-05-26-01:54:49.329549,0.325,-0.203,10.110,-33.700,-7.300,-7.700,-1.070,2.656,-0.430
2019-05-26-01:54:49.439454,0.340,-0.211,10.146,-35.000,-7.200,-6.900,-0.961,2.734,-0.273
2019-05-26-01:54:49.549296,0.337,-0.213,10.119,-34.300,-7.700,-7.500,-0.961,2.883,-0.391
2019-05-26-01:54:49.658975,0.337,-0.232,10.131,-35.300,-7.200,-8.700,-0.727,2.672,-0.055
2019-05-26-01:54:49.769065,0.340,-0.232,10.146,-35.000,-7.600,-6.700,-1.188,2.852,-0.148
2019-05-26-01:54:49.878912,0.340,-0.196,10.086,-35.500,-7.000,-9.000,-0.867,2.805,-0.164
2019-05-26-01:54:49.988561,0.328,-0.237,10.165,-34.600,-8.300,-7.300,-0.633,2.672,-0.148
2019-05-26-01:54:50.098109,0.361,-0.218,10.138,-47.700,-3.400,37.100,-0.617,3.023,-0.125
2019-05-26-01:54:50.207628,0.357,-0.213,10.114,-19.800,-6.300,-14.100,-1.500,2.523,-0.203
2019-05-26-01:54:50.317166,0.345,-0.201,10.124,1.500,-4.600,-10.300,-1.016,2.844,-0.125
2019-05-26-01:54:50.426881,0.330,-0.206,10.122,15.900,-2.100,21.300,-1.547,2.625,-0.258
2019-05-26-01:54:50.537065,0.323,-0.215,10.126,3.300,0.300,67.800,-1.305,2.742,-0.164
2019-05-26-01:54:50.646663,0.330,-0.206,10.105,-42.600,-4.600,45.800,-1.359,2.734,-0.078
2019-05-26-01:54:50.756190,0.337,-0.215,10.136,-12.700,-5.200,-14.900,-0.633,2.781,-0.164
2019-05-26-01:54:50.866039,0.340,-0.208,10.122,14.300,0.400,57.200,-1.062,2.969,-0.180
2019-05-26-01:54:50.976113,0.330,-0.206,10.119,-45.800,-5.200,27.700,-1.156,2.891,-0.211
2019-05-26-01:54:51.085705,0.340,-0.203,10.153,10.500,-4.500,2.300,-1.039,2.625,-0.008
2019-05-26-01:54:51.195214,0.318,-0.223,10.093,-4.100,-2.700,60.000,-1.094,2.680,-0.094
2019-05-26-01:54:51.304765,0.325,-0.191,10.117,17.800,-2.000,26.900,-0.586,2.883,-0.234
2019-05-26-01:54:51.414609,0.328,-0.194,10.098,-32.100,-6.500,-7.500,-1.188,2.656,-0.258
2019-05-26-01:54:51.524551,0.328,-0.206,10.134,-32.400,-1.900,62.400,-1.070,2.805,-0.281
2019-05-26-01:54:51.634226,0.311,-0.213,10.129,6.200,-0.600,60.200,-1.500,2.609,-0.227
2019-05-26-01:54:51.744304,0.321,-0.211,10.102,21.100,-1.900,23.200,-1.094,2.742,-0.094
2019-05-26-01:54:51.854151,0.337,-0.215,10.114,5.100,-3.500,-2.300,-0.984,2.867,-0.234
2019-05-26-01:54:51.963756,0.325,-0.213,10.119,0.200,-5.400,-10.700,-1.258,2.727,0.055
2019-05-26-01:54:52.073287,0.347,-0.201,10.131,-2.000,-5.100,-9.300,-0.750,2.773,0.078
2019-05-26-01:54:52.183205,0.359,-0.215,10.095,10.700,-4.100,-3.200,-1.008,2.711,-0.070
2019-05-26-01:54:52.292895,0.347,-0.203,10.091,-3.100,-8.200,-21.800,-1.047,2.711,-0.320
2019-05-26-01:54:52.402623,0.328,-0.191,10.114,-16.700,-0.800,68.300,-1.164,2.672,0.008
2019-05-26-01:54:52.512514,0.335,-0.211,10.119,-26.000,-7.000,-13.000,-1.492,2.227,-0.234
2019-05-26-01:54:52.626111,0.488,-0.359,10.167,5.200,0.900,65.000,-1.008,2.844,-0.188
2019-05-26-01:54:52.735717,0.581,-0.335,10.306,-23.800,-6.300,-11.200,0.461,3.719,-0.109
2019-05-26-01:54:52.845432,0.268,-0.218,9.966,-26.800,-2.900,62.800,-0.273,3.320,-0.398
2019-05-26-01:54:52.955455,0.299,-0.184,9.978,21.700,-1.900,30.000,-0.727,3.148,-0.523
2019-05-26-01:54:53.065034,0.316,-0.158,10.062,-15.800,-6.000,-14.600,-0.508,3.250,-0.492
2019-05-26-01:54:53.174553,0.402,-0.201,10.069,-43.400,-6.000,10.500,-0.219,3.406,-0.656
2019-05-26-01:54:53.284128,0.404,-0.234,10.213,-38.800,-2.500,56.300,-0.781,2.844,-0.859
2019-05-26-01:54:53.394107,0.493,-0.172,10.076,-25.000,-2.300,63.000,-0.586,2.672,-3.836
2019-05-26-01:54:53.503853,0.392,-0.179,10.241,-18.400,-0.800,71.600,-0.820,2.703,-5.414
2019-05-26-01:54:53.613547,0.294,-0.203,10.012,-21.400,-2.400,66.100,-1.281,2.547,-1.469
2019-05-26-01:54:53.723113,0.407,-0.249,10.220,-33.200,-1.400,62.000,-0.695,2.812,-2.547
2019-05-26-01:54:53.832775,0.347,-0.179,10.186,-45.500,-4.600,27.000,-1.266,2.648,-4.617
2019-05-26-01:54:53.942476,0.469,-0.153,10.105,-45.700,-1.400,52.800,-0.938,2.625,-5.875
2019-05-26-01:54:54.052051,0.438,-0.012,10.165,11.200,-1.000,53.700,-0.750,2.750,-5.906
2019-05-26-01:54:54.162006,0.416,-0.086,10.129,-35.000,-7.500,-3.500,-0.359,3.117,-7.430
2019-05-26-01:54:54.271797,0.069,-0.234,10.095,-0.900,0.000,69.000,-0.594,2.758,-3.633
2019-05-26-01:54:54.381746,0.390,-0.153,10.112,1.900,-4.100,-6.800,-0.648,2.531,-5.523
2019-05-26-01:54:54.498309,0.270,-0.196,10.107,-41.700,-5.700,41.500,-0.727,2.367,-5.875
2019-05-26-01:54:54.608027,0.345,-0.108,10.098,-2.400,-1.900,70.500,-0.117,2.547,-9.219
2019-05-26-01:54:54.717589,0.160,-0.096,10.105,17.400,-1.800,36.000,-1.016,2.758,-11.891
2019-05-26-01:54:54.827172,-0.007,-0.321,10.129,18.300,-1.700,6.600,-0.641,2.766,-6.734
2019-05-26-01:54:54.936923,0.280,-0.263,10.153,6.000,-4.400,-7.600,-0.656,2.914,-5.234
2019-05-26-01:54:55.046720,0.024,-0.136,10.000,7.600,-4.400,-9.000,-1.445,2.695,-2.945
2019-05-26-01:54:55.156537,0.395,-0.151,10.035,10.600,-3.800,-1.000,-0.844,2.766,-2.469
2019-05-26-01:54:55.266221,0.275,-0.172,10.119,22.900,-1.700,24.000,-0.836,2.930,-2.805
2019-05-26-01:54:55.376292,0.208,-0.325,10.110,9.900,-2.400,58.900,-1.258,2.742,-0.148
2019-05-26-01:54:55.486059,0.309,-0.144,10.117,-24.300,-6.100,69.200,-0.977,2.875,0.133
2019-05-26-01:54:55.595936,0.309,-0.112,10.114,-44.100,-10.600,6.500,-1.125,2.383,0.234
2019-05-26-01:54:55.706332,0.278,-0.158,10.129,1.400,-5.800,-10.500,-0.961,2.680,-0.023
2019-05-26-01:54:55.816039,0.290,-0.144,10.124,7.700,-1.800,63.500,-0.914,2.766,-0.055
2019-05-26-01:54:55.925794,0.309,-0.170,10.124,-40.300,-10.300,0.200,-1.445,2.680,-0.547
2019-05-26-01:54:56.035399,0.345,-0.146,10.119,18.500,-2.100,19.400,-1.109,2.547,-0.875
2019-05-26-01:54:56.144934,0.292,-0.172,10.134,-42.600,-7.700,48.700,-0.852,2.852,-0.141
2019-05-26-01:54:56.254472,0.318,-0.163,10.189,18.500,-2.800,0.900,-0.797,3.102,1.141
2019-05-26-01:54:56.364278,0.309,-0.170,10.138,-42.500,-8.300,41.400,-0.711,2.711,0.125
2019-05-26-01:54:56.473938,0.316,-0.189,10.119,19.200,-2.600,22.600,-1.211,2.852,-0.023
2019-05-26-01:54:56.583936,0.294,-0.167,10.119,-42.800,-8.600,5.000,-1.211,2.578,0.125
2019-05-26-01:54:56.693628,0.301,-0.144,10.107,-6.400,-2.700,70.800,-0.922,2.734,-0.102
2019-05-26-01:54:56.803223,0.311,-0.156,10.119,16.000,-3.000,-2.600,-0.875,2.852,-0.180
2019-05-26-01:54:56.913155,0.309,-0.156,10.110,-40.000,-8.700,-2.700,-1.070,2.711,0.133
2019-05-26-01:54:57.022762,0.311,-0.172,10.107,-32.400,-6.500,57.700,-0.891,2.742,-0.227
2019-05-26-01:54:57.134353,0.299,-0.167,10.169,11.100,-2.900,54.600,-0.938,2.734,-0.320
2019-05-26-01:54:57.243983,0.290,-0.189,10.122,16.300,-2.300,9.000,-1.086,2.758,-0.188
2019-05-26-01:54:57.353724,0.299,-0.182,10.124,4.100,-4.600,-11.100,-0.680,2.625,-0.047
2019-05-26-01:54:57.463523,0.299,-0.175,10.122,-27.800,-8.800,-16.700,-0.781,2.797,-0.141
2019-05-26-01:54:57.573230,0.304,-0.167,10.165,-46.000,-9.000,14.800,-0.945,2.656,-0.094
2019-05-26-01:54:57.686845,0.306,-0.177,10.117,-40.100,-8.800,-0.100,-0.773,2.594,-0.164
2019-05-26-01:54:57.796919,0.301,-0.177,10.110,-18.200,-8.300,-18.200,-1.383,2.758,-0.094
2019-05-26-01:54:57.906779,0.297,-0.177,10.112,-8.200,-6.400,-17.500,-1.039,2.633,-0.078
2019-05-26-01:54:58.016443,0.301,-0.165,10.110,-21.700,-9.000,-17.500,-0.914,2.508,-0.125
2019-05-26-01:54:58.126485,0.395,-0.266,10.146,-29.200,-10.100,-12.300,-1.203,2.664,2.055
2019-05-26-01:54:58.236196,0.385,-0.457,10.129,-34.100,-9.400,-7.200,-1.438,2.523,1.984
2019-05-26-01:54:58.345916,0.285,-0.244,10.150,-34.700,-10.800,-7.500,-1.023,2.797,0.781
2019-05-26-01:54:58.455553,0.306,-0.191,10.117,-33.600,-10.000,-7.800,-0.398,2.711,-2.859
2019-05-26-01:54:58.565361,0.352,-0.141,10.138,-33.900,-10.600,-8.200,-1.312,2.711,-3.281
2019-05-26-01:54:58.675010,0.301,-0.179,10.126,-33.400,-9.900,-8.400,-0.984,2.648,-0.391
2019-05-26-01:54:58.785632,0.309,-0.134,10.126,-32.700,-10.400,-8.400,-0.805,2.477,0.289
2019-05-26-01:54:58.895610,0.306,-0.179,10.122,-33.000,-11.900,-8.400,-1.367,2.625,0.016
2019-05-26-01:54:59.005652,0.311,-0.163,10.119,-32.300,-11.200,-8.200,-0.766,2.648,-0.117
2019-05-26-01:54:59.115275,0.294,-0.179,10.122,-32.300,-10.300,-8.300,-1.305,2.852,-0.078
2019-05-26-01:54:59.224816,0.297,-0.175,10.124,-32.500,-11.700,-8.500,-0.930,3.008,0.016
2019-05-26-01:54:59.334944,0.316,-0.163,10.138,-31.900,-10.400,-8.300,-1.016,2.719,-0.383
2019-05-26-01:54:59.444872,0.311,-0.172,10.124,-32.900,-10.300,-9.400,-1.062,2.633,-0.031
2019-05-26-01:54:59.554719,0.301,-0.177,10.126,-31.600,-11.000,-9.300,-0.961,2.758,-0.453
2019-05-26-01:54:59.664397,0.505,0.189,10.119,-32.600,-10.600,-7.900,-0.141,2.422,1.719
2019-05-26-01:54:59.773937,0.287,-0.220,10.107,-32.000,-11.100,-9.500,-0.789,2.789,-1.891
2019-05-26-01:54:59.883808,0.304,-0.163,10.119,-33.000,-10.400,-8.500,-1.219,2.453,0.062
2019-05-26-01:54:59.993645,0.175,-0.172,10.146,-33.400,-10.000,-8.400,-1.250,2.766,-2.672
2019-05-26-01:55:00.109758,0.361,-0.179,10.138,-32.400,-12.200,-9.300,-0.945,2.727,-8.812
2019-05-26-01:55:00.219442,0.287,-0.160,10.148,-31.500,-11.600,-11.100,-1.164,2.906,0.078
2019-05-26-01:55:00.329190,0.313,-0.163,10.122,-32.100,-11.700,-9.900,-0.852,2.688,0.078
2019-05-26-01:55:00.438963,0.290,-0.184,10.112,-32.000,-11.300,-9.900,-1.352,2.844,-0.102
2019-05-26-01:55:00.549048,0.294,-0.175,10.138,-31.800,-11.700,-10.200,-0.961,2.734,-0.047
2019-05-26-01:55:00.658776,0.299,-0.163,10.117,-32.100,-11.400,-8.700,-0.805,2.758,-0.148
2019-05-26-01:55:00.768340,0.285,-0.199,10.119,-32.300,-11.000,-10.200,-1.359,2.773,5.211
2019-05-26-01:55:00.878166,0.299,-0.208,10.129,-32.200,-10.200,-9.700,-0.961,2.859,3.047
2019-05-26-01:55:00.987788,0.309,-0.172,10.124,-31.800,-11.500,-9.900,-0.828,2.797,-0.258
2019-05-26-01:55:01.097312,0.299,-0.225,10.112,-33.200,-10.500,-8.500,-0.820,2.672,-0.258
2019-05-26-01:55:01.206835,0.323,-0.127,10.110,-32.300,-11.400,-10.300,-0.906,2.570,2.211
2019-05-26-01:55:01.318067,0.301,-0.175,10.119,-31.700,-10.400,-10.900,-0.906,2.586,1.344
2019-05-26-01:55:01.427871,0.311,-0.191,10.124,-33.000,-10.700,-8.500,-0.914,2.922,1.656
2019-05-26-01:55:01.537715,0.299,-0.177,10.112,-32.100,-10.100,-8.900,-1.352,2.953,-0.047
2019-05-26-01:55:01.647376,0.321,-0.184,10.131,-33.600,-11.200,-7.600,-0.938,2.695,-0.273
2019-05-26-01:55:01.757379,0.301,-0.156,10.126,-33.500,-11.200,-8.400,-1.289,2.797,-0.008
2019-05-26-01:55:01.867239,0.287,-0.172,10.122,-33.100,-11.200,-9.200,-1.148,3.055,0.062
2019-05-26-01:55:01.976921,0.287,-0.194,10.110,-32.900,-10.400,-8.500,-1.312,3.086,-0.227
2019-05-26-01:55:02.086632,0.318,-0.165,10.102,-33.200,-11.100,-8.300,-0.898,2.852,-0.055
2019-05-26-01:55:02.196830,0.309,-0.175,10.124,-32.900,-10.500,-7.300,-0.797,2.719,-0.164
2019-05-26-01:55:02.306718,0.306,-0.187,10.110,-33.500,-11.800,-8.300,-0.852,2.766,-0.047
2019-05-26-01:55:02.416742,0.304,-0.170,10.105,-33.000,-11.000,-8.000,-1.078,2.688,0.016
2019-05-26-01:55:02.526809,0.313,-0.175,10.114,-31.500,-10.400,-6.900,-0.633,2.672,0.102
2019-05-26-01:55:02.636606,0.309,-0.170,10.143,-31.900,-10.400,-8.900,-0.781,2.734,-0.094
2019-05-26-01:55:02.751188,0.285,-0.158,10.102,-33.500,-10.600,-8.700,-1.180,2.734,-0.117
2019-05-26-01:55:02.860937,0.301,-0.177,10.129,-32.200,-11.300,-8.900,-1.250,2.711,-0.055
2019-05-26-01:55:02.970965,0.297,-0.165,10.107,-30.900,-9.500,-8.300,-0.719,2.734,-0.164
2019-05-26-01:55:03.080697,0.304,-0.179,10.098,-33.400,-10.400,-8.200,-0.867,2.719,-0.234
2019-05-26-01:55:03.190415,0.297,-0.177,10.136,-34.400,-10.300,-8.800,-0.914,2.609,-0.008
2019-05-26-01:55:03.299996,0.309,-0.165,10.114,-33.700,-11.000,-7.500,-0.992,2.641,0.055
2019-05-26-01:55:03.409732,0.299,-0.182,10.114,-33.300,-11.100,-8.000,-0.875,2.820,-0.297
2019-05-26-01:55:03.519462,0.304,-0.170,10.136,-33.200,-10.400,-7.600,-1.234,2.586,-0.031
2019-05-26-01:55:03.629122,0.304,-0.163,10.124,-33.400,-10.700,-8.500,-1.203,2.570,-0.258
2019-05-26-01:55:03.739201,0.304,-0.184,10.119,-32.200,-10.200,-8.800,-0.922,2.727,0.109
2019-05-26-01:55:03.849040,0.301,-0.191,10.122,-33.000,-10.600,-7.100,-0.938,2.648,-0.070
2019-05-26-01:55:03.958663,0.292,-0.175,10.117,-32.400,-11.500,-8.600,-0.922,2.758,-0.227
2019-05-26-01:55:04.068255,0.304,-0.158,10.117,-33.300,-10.800,-8.200,-1.234,2.727,0.016
2019-05-26-01:55:04.178230,0.254,-0.156,10.079,-31.500,-11.300,-7.400,-1.438,2.844,0.016
2019-05-26-01:55:04.287864,0.292,-0.225,10.146,-35.300,-8.400,3.200,-1.008,2.625,-0.141
2019-05-26-01:55:04.398044,0.294,-0.165,10.126,-9.400,-3.900,58.900,-1.188,2.742,-0.188
2019-05-26-01:55:04.507928,0.311,-0.158,10.112,-39.400,-8.000,43.700,-0.914,2.562,-0.164
2019-05-26-01:55:04.617749,0.297,-0.160,10.131,-37.500,-10.700,-0.700,-0.586,2.773,0.062
2019-05-26-01:55:04.727359,0.313,-0.175,10.098,7.900,-7.400,-10.800,-1.047,2.484,-0.047
2019-05-26-01:55:04.837137,0.316,-0.179,10.114,6.500,-1.300,57.200,-1.008,2.508,-0.055
2019-05-26-01:55:04.947206,0.301,-0.160,10.117,-43.200,-8.700,37.100,-0.562,2.734,-0.031
2019-05-26-01:55:05.056939,0.304,-0.172,10.112,6.700,-6.300,-10.900,-0.922,2.906,-0.141
2019-05-26-01:55:05.166621,0.297,-0.172,10.114,-13.600,-3.300,64.800,-1.086,2.734,-0.148
2019-05-26-01:55:05.276143,0.299,-0.187,10.110,-20.200,-9.900,-13.800,-0.461,2.906,-0.234
2019-05-26-01:55:05.386197,0.306,-0.199,10.117,-2.700,-0.600,69.600,-1.094,2.750,0.016
2019-05-26-01:55:05.496072,0.292,-0.160,10.134,-13.300,-8.800,-19.900,-1.227,2.844,-0.141
2019-05-26-01:55:05.607812,0.304,-0.177,10.122,-23.600,-4.000,61.900,-1.078,2.578,0.109
2019-05-26-01:55:05.717444,0.304,-0.170,10.124,14.600,-4.600,4.100,-1.188,3.023,-0.188
2019-05-26-01:55:05.827182,0.304,-0.175,10.124,-42.600,-11.100,11.400,-1.031,2.531,0.062
2019-05-26-01:55:05.936936,0.297,-0.167,10.129,-11.100,-0.900,72.400,-1.016,2.961,0.125
2019-05-26-01:55:06.046656,0.297,-0.189,10.124,20.200,-3.000,16.200,-0.781,2.648,-0.023
2019-05-26-01:55:06.156648,0.299,-0.156,10.126,-16.100,-10.100,-19.400,-1.047,2.672,-0.141
2019-05-26-01:55:06.266382,0.306,-0.182,10.131,-42.600,-10.400,21.300,-0.750,2.852,-0.164
2019-05-26-01:55:06.376236,0.345,-0.134,9.973,-32.000,-6.800,53.300,-1.141,2.625,-0.258
2019-05-26-01:55:06.486024,0.294,-0.194,10.136,-6.900,-2.400,64.900,-0.820,2.828,-0.047
2019-05-26-01:55:06.596129,0.325,-0.170,10.122,15.900,-1.100,38.500,-1.305,2.891,-0.164
2019-05-26-01:55:06.705834,0.304,-0.175,10.134,16.100,-1.200,42.600,-1.211,2.625,-0.125
2019-05-26-01:55:06.815459,0.290,-0.172,10.102,-4.000,-2.300,63.400,-1.117,2.648,-0.305
2019-05-26-01:55:06.925218,0.297,-0.170,10.114,-21.100,-4.300,61.900,-1.141,2.656,-0.297
2019-05-26-01:55:07.034822,0.294,-0.184,10.119,-6.000,-2.500,64.900,-0.758,3.000,-0.070
2019-05-26-01:55:07.144465,0.294,-0.184,10.134,-5.300,-7.900,-17.300,-1.164,2.594,-0.031
2019-05-26-01:55:07.254007,0.301,-0.160,10.112,12.000,-7.000,26.300,-0.852,2.766,-0.008
2019-05-26-01:55:07.363908,0.304,-0.177,10.131,-27.700,-2.700,69.000,-1.156,2.625,-0.320
2019-05-26-01:55:07.473772,0.309,-0.182,10.105,-37.700,-4.900,31.700,-1.086,2.805,-0.258
2019-05-26-01:55:07.583607,0.299,-0.187,10.143,14.200,-5.600,14.800,-1.000,2.648,0.039
2019-05-26-01:55:07.693263,0.328,-0.165,10.155,1.200,-7.200,-2.400,-0.898,2.758,-0.148
2019-05-26-01:55:07.807223,0.287,-0.189,10.122,-2.500,-4.400,39.600,-0.977,2.672,0.039
2019-05-26-01:55:07.917124,0.285,-0.175,10.102,4.400,-6.100,21.400,-1.031,2.586,0.086
2019-05-26-01:55:08.026757,0.330,-0.144,10.110,-25.600,-7.300,17.300,-1.039,2.797,0.008
2019-05-26-01:55:08.136446,0.335,-0.170,10.150,5.900,-7.000,8.000,-1.133,2.867,-0.031
2019-05-26-01:55:08.246087,0.270,-0.201,10.086,1.900,-5.500,21.100,-1.070,2.711,-0.094
2019-05-26-01:55:08.355842,0.345,-0.153,10.119,5.800,-5.100,16.300,-0.750,2.805,-0.250
2019-05-26-01:55:08.465479,0.285,-0.194,10.105,-8.200,-6.800,6.100,-0.742,2.609,-0.070
2019-05-26-01:55:08.575467,0.282,-0.213,10.143,-25.200,-7.300,25.800,-1.008,2.781,-0.117
2019-05-26-01:55:08.685143,0.342,-0.115,10.102,-5.500,-3.400,39.400,-0.727,2.719,-0.180
2019-05-26-01:55:08.794777,0.266,-0.163,10.129,-0.100,-21.600,31.100,-1.125,2.516,0.109
2019-05-26-01:55:08.904502,0.354,-0.124,10.146,-7.800,-14.700,70.100,-1.016,2.758,-0.344
2019-05-26-01:55:09.014639,0.311,-0.158,10.134,2.000,-19.900,27.500,-0.945,2.758,-0.234
2019-05-26-01:55:09.124337,0.287,-0.215,10.131,-3.600,-18.700,72.300,-0.711,2.617,0.086
2019-05-26-01:55:09.233968,0.292,-0.208,10.148,-4.500,-17.300,33.600,-0.805,2.695,-0.117
2019-05-26-01:55:09.343668,0.340,-0.120,10.069,0.200,-18.900,59.000,-1.289,2.828,-0.273
2019-05-26-01:55:09.453513,0.330,-0.115,10.071,-8.800,-19.700,41.100,-1.008,2.828,-0.102
2019-05-26-01:55:09.563447,0.263,-0.194,10.076,9.400,-13.800,54.900,-0.859,2.625,0.086
2019-05-26-01:55:09.673200,0.285,-0.239,10.155,-18.500,-13.900,60.500,-1.148,2.727,0.031
2019-05-26-01:55:09.783151,0.304,-0.158,10.129,1.900,-13.000,34.700,-0.719,2.672,-0.180
2019-05-26-01:55:09.892999,0.342,-0.120,10.105,-8.200,-15.600,69.700,-1.086,2.609,-0.125
2019-05-26-01:55:10.002790,0.318,-0.141,10.122,-3.400,-19.900,32.200,-0.875,2.719,-0.125
2019-05-26-01:55:10.112475,0.282,-0.203,10.136,1.300,-16.500,37.100,-1.234,2.766,0.008
2019-05-26-01:55:10.222561,0.285,-0.230,10.158,-2.100,-19.900,62.000,-0.820,2.625,-0.094
2019-05-26-01:55:10.332355,0.294,-0.156,10.124,-13.300,-17.000,43.400,-1.383,2.883,-0.227
2019-05-26-01:55:10.442088,0.337,-0.127,10.105,12.200,-18.300,54.500,-1.188,2.578,0.031
2019-05-26-01:55:10.551855,0.297,-0.160,10.119,-16.100,-15.000,68.000,-1.102,2.727,0.102
2019-05-26-01:55:10.661512,0.306,-0.196,10.138,5.600,-21.300,39.500,-1.188,2.820,-0.070
2019-05-26-01:55:10.771108,0.273,-0.227,10.177,1.400,-17.900,69.300,-1.250,2.781,-0.234
2019-05-26-01:55:10.880897,0.321,-0.196,10.107,-9.900,-22.300,43.600,-0.922,2.820,0.008
2019-05-26-01:55:10.990929,0.342,-0.132,10.112,9.000,-15.200,46.800,-1.445,2.758,-0.234
2019-05-26-01:55:11.100627,0.297,-0.144,10.117,-10.600,-18.400,68.900,-0.945,2.422,0.008
2019-05-26-01:55:11.210199,0.282,-0.220,10.122,-2.300,-19.200,31.600,-1.141,2.914,-0.180
2019-05-26-01:55:11.319789,0.263,-0.232,10.179,2.200,-17.900,68.100,-1.164,2.555,0.148
2019-05-26-01:55:11.429794,0.323,-0.134,10.107,-12.600,-17.200,50.200,-1.086,2.680,-0.141
2019-05-26-01:55:11.539563,0.275,-0.179,10.136,8.300,-15.000,45.600,-0.984,2.523,-0.031
2019-05-26-01:55:11.649160,0.280,-0.242,10.181,-8.400,-18.800,74.600,-0.891,2.633,-0.078
2019-05-26-01:55:11.758878,0.280,-0.206,10.146,0.600,-21.000,35.100,-0.898,2.734,-0.031
2019-05-26-01:55:11.868646,0.337,-0.139,10.083,0.900,-15.200,60.200,-0.914,2.586,-0.031
2019-05-26-01:55:11.978274,0.321,-0.112,10.117,-16.500,-18.300,49.900,-0.727,2.867,-0.008
2019-05-26-01:55:12.087813,0.301,-0.179,10.112,14.100,-19.100,45.400,-0.578,2.867,-0.078
2019-05-26-01:55:12.197773,0.275,-0.254,10.134,-9.300,-15.100,74.800,-1.094,2.836,0.039
2019-05-26-01:55:12.307469,0.299,-0.211,10.160,-10.800,-19.600,65.700,-1.008,3.047,0.266
2019-05-26-01:55:12.417273,0.347,-0.132,10.102,8.100,-21.300,35.000,-1.086,2.594,-0.180
2019-05-26-01:55:12.527073,0.347,-0.098,10.105,1.100,-17.000,72.100,-1.062,2.594,-0.320
2019-05-26-01:55:12.637159,0.294,-0.187,10.141,-7.100,-23.500,49.900,-1.156,2.891,-0.117
2019-05-26-01:55:12.746815,0.285,-0.225,10.196,15.900,-24.400,52.200,-0.992,2.680,-0.031
2019-05-26-01:55:12.862775,0.294,-0.227,10.069,-7.700,-21.000,30.000,-1.094,2.672,-0.008
2019-05-26-01:55:12.972530,0.333,-0.165,10.114,11.700,-25.100,60.000,-0.773,2.523,-0.250
2019-05-26-01:55:13.082106,0.304,-0.127,10.124,-17.700,-14.800,50.900,-1.039,2.719,0.008
2019-05-26-01:55:13.191656,0.301,-0.182,10.126,16.100,-19.900,48.000,-0.773,2.828,-0.180
2019-05-26-01:55:13.301186,0.275,-0.218,10.196,-13.600,-15.900,70.200,-1.164,2.906,0.055
2019-05-26-01:55:13.411162,0.301,-0.196,10.136,1.500,-22.500,42.800,-0.945,2.539,0.156
2019-05-26-01:55:13.520939,0.337,-0.144,10.091,-2.400,-12.800,59.100,-0.781,2.688,0.078
2019-05-26-01:55:13.630847,0.325,-0.103,10.088,-13.600,-16.000,49.600,-0.906,2.820,0.016
2019-05-26-01:55:13.743581,0.290,-0.182,10.126,9.500,-17.400,41.900,-0.625,2.953,-0.227
2019-05-26-01:55:13.853390,0.299,-0.227,10.193,-7.100,-18.600,77.500,-0.703,2.906,-0.148
2019-05-26-01:55:13.965052,0.311,-0.170,10.105,-1.000,-16.200,41.600,-1.312,2.719,-0.164
2019-05-26-01:55:14.074718,0.294,-0.127,10.122,-2.400,-20.800,58.000,-1.305,2.547,-0.188
2019-05-26-01:55:14.184382,0.311,-0.127,10.100,-16.200,-13.000,32.200,-1.070,2.844,-0.047
2019-05-26-01:55:14.294396,0.292,-0.196,10.138,3.000,-6.600,25.800,-0.562,2.734,-0.164
2019-05-26-01:55:14.404556,0.254,-0.239,10.160,-23.700,-4.900,43.200,-0.898,2.711,0.148
2019-05-26-01:55:14.514452,0.261,-0.237,10.143,-5.400,-8.400,11.400,-0.938,2.648,-0.203
2019-05-26-01:55:14.624489,0.328,-0.156,10.136,-10.200,-6.400,39.800,-1.008,2.969,-0.094
2019-05-26-01:55:14.734203,0.337,-0.127,10.081,-18.100,-7.700,20.200,-1.070,2.695,-0.148
2019-05-26-01:55:14.843915,0.297,-0.175,10.146,2.100,-4.400,25.900,-1.016,2.688,0.055
2019-05-26-01:55:14.953962,0.256,-0.254,10.205,-21.400,-6.000,43.700,-1.195,2.672,0.125
2019-05-26-01:55:15.063625,0.278,-0.213,10.134,-7.400,-7.800,10.800,-1.117,2.742,-0.023
2019-05-26-01:55:15.173435,0.313,-0.122,10.112,-9.500,-7.300,41.000,-1.188,2.594,-0.125
2019-05-26-01:55:15.283128,0.333,-0.110,10.081,-13.900,-4.900,46.400,-1.023,2.930,-0.078
2019-05-26-01:55:15.392949,0.285,-0.179,10.122,-16.900,-7.600,15.000,-0.562,2.562,-0.164
2019-05-26-01:55:15.502714,0.261,-0.223,10.150,-2.600,-6.000,29.100,-1.281,2.906,-0.055
2019-05-26-01:55:15.612430,0.297,-0.211,10.122,-24.400,-6.400,34.700,-1.180,2.609,-0.148
2019-05-26-01:55:15.722053,0.335,-0.136,10.138,-2.000,-7.400,10.100,-1.211,3.000,-0.148
2019-05-26-01:55:15.832077,0.330,-0.117,10.071,-10.800,-3.800,45.100,-1.062,2.648,-0.203
2019-05-26-01:55:15.941837,0.297,-0.199,10.143,-21.800,-7.600,20.700,-0.680,2.852,-0.102
2019-05-26-01:55:16.051441,0.244,-0.218,10.167,-0.600,-7.000,23.900,-1.227,2.570,-0.078
2019-05-26-01:55:16.161358,0.299,-0.203,10.138,-23.300,-6.000,39.400,-1.117,2.711,-0.148
2019-05-26-01:55:16.271020,0.352,-0.120,10.136,-4.500,-7.000,9.500,-0.562,2.766,0.008
2019-05-26-01:55:16.380883,0.311,-0.103,10.069,-8.300,-3.400,42.500,-0.875,2.648,-0.188
2019-05-26-01:55:16.490721,0.278,-0.148,10.162,-23.900,-7.400,24.300,-0.750,2.750,0.031
2019-05-26-01:55:16.600547,0.309,-0.160,10.141,-0.300,-6.200,18.900,-1.039,2.867,-0.227
2019-05-26-01:55:16.710194,0.333,-0.120,10.110,-21.900,-5.400,41.400,-1.086,2.656,-0.250
2019-05-26-01:55:16.819798,0.318,-0.148,10.122,-7.700,-7.600,8.100,-0.891,2.797,-0.117
2019-05-26-01:55:16.929580,0.273,-0.218,10.110,-4.400,-3.800,41.400,-1.023,2.930,0.125
2019-05-26-01:55:17.039636,0.275,-0.242,10.131,-25.200,-5.900,30.700,-1.289,2.711,0.008
2019-05-26-01:55:17.149277,0.316,-0.172,10.112,-0.800,-6.300,13.300,-1.117,2.914,-0.031
2019-05-26-01:55:17.258916,0.335,-0.136,10.119,-18.600,-5.600,41.200,-1.766,2.633,-0.047
2019-05-26-01:55:17.369024,0.292,-0.134,10.134,-12.100,-7.900,11.500,-0.992,2.586,-0.141
2019-05-26-01:55:17.478823,0.275,-0.211,10.138,-1.700,-4.100,35.700,-1.203,2.695,-0.141
2019-05-26-01:55:17.588515,0.273,-0.244,10.167,-25.100,-5.400,36.700,-1.250,2.734,-0.055
2019-05-26-01:55:17.698198,0.301,-0.175,10.119,-21.500,-7.600,23.300,-1.039,2.891,-0.180
2019-05-26-01:55:17.807770,0.333,-0.136,10.098,3.200,-5.700,20.100,-0.828,2.633,-0.297
2019-05-26-01:55:17.921360,0.306,-0.141,10.117,-17.100,-7.100,15.400,-0.773,2.953,-0.070
2019-05-26-01:55:18.031036,0.273,-0.201,10.122,1.500,-5.200,30.400,-0.820,2.508,-0.008
2019-05-26-01:55:18.140672,0.285,-0.225,10.169,-23.900,-5.100,42.500,-0.797,2.734,-0.125
2019-05-26-01:55:18.250733,0.292,-0.196,10.134,-6.600,-7.200,8.900,-1.125,2.664,0.031
2019-05-26-01:55:18.360595,0.340,-0.136,10.083,-10.600,-5.900,40.600,-1.508,2.766,-0.125
2019-05-26-01:55:18.470267,0.328,-0.144,10.079,-19.800,-7.700,20.300,-0.891,2.539,-0.117
2019-05-26-01:55:18.580298,0.287,-0.189,10.124,-16.200,-8.300,13.600,-0.680,2.789,0.234
2019-05-26-01:55:18.689986,0.254,-0.220,10.201,-2.200,-6.300,33.500,-1.359,2.656,-0.188
2019-05-26-01:55:18.799615,0.297,-0.215,10.122,-24.400,-6.300,32.500,-0.727,2.586,-0.023
2019-05-26-01:55:18.909399,0.330,-0.120,10.098,-2.800,-6.300,10.100,-1.047,2.734,-0.117
2019-05-26-01:55:19.019146,0.294,-0.122,10.102,-10.800,-3.400,45.900,-0.859,2.578,0.031
2019-05-26-01:55:19.129103,0.292,-0.167,10.110,-20.200,-7.600,20.400,-1.227,2.609,-0.078
2019-05-26-01:55:19.238930,0.270,-0.230,10.181,-0.200,-6.500,23.400,-1.117,2.602,0.102
2019-05-26-01:55:19.351142,0.290,-0.203,10.129,-23.200,-6.100,37.600,-1.008,2.594,-0.117
2019-05-26-01:55:19.461080,0.349,-0.146,10.105,-4.800,-6.900,10.800,-0.719,2.867,-0.148
2019-05-26-01:55:19.570921,0.321,-0.112,10.117,-5.800,-3.700,42.400,-1.094,2.586,-0.094
2019-05-26-01:55:19.680718,0.309,-0.177,10.107,-23.000,-6.200,26.400,-0.828,2.586,-0.188
2019-05-26-01:55:19.790745,0.282,-0.223,10.155,0.000,-6.000,16.900,-1.297,2.859,0.109
2019-05-26-01:55:19.900611,0.275,-0.220,10.114,-19.900,-5.300,42.600,-1.305,2.586,-0.031
2019-05-26-01:55:20.010360,0.325,-0.158,10.098,-11.100,-7.700,10.600,-1.070,2.766,-0.297
2019-05-26-01:55:20.119944,0.333,-0.108,10.098,-1.300,-4.500,34.600,-0.891,2.719,-0.180
2019-05-26-01:55:20.229515,0.301,-0.156,10.122,-25.000,-6.500,34.700,-0.984,2.766,-0.023
2019-05-26-01:55:20.339183,0.282,-0.220,10.169,-4.300,-7.600,11.800,-0.984,2.711,-0.164
2019-05-26-01:55:20.448922,0.280,-0.227,10.148,-15.300,-5.200,42.300,-1.180,2.930,-0.125
2019-05-26-01:55:20.559223,0.340,-0.170,10.126,-19.600,-7.200,16.300,-1.383,2.781,-0.164
2019-05-26-01:55:20.669180,0.304,-0.182,10.119,2.100,-5.800,23.900,-1.016,2.672,-0.258
2019-05-26-01:55:20.778884,0.282,-0.242,10.158,-22.800,-6.300,43.500,-0.750,2.703,0.086
2019-05-26-01:55:20.888754,0.304,-0.206,10.119,-8.200,-8.400,9.400,-0.945,2.781,-0.055
2019-05-26-01:55:20.998888,0.323,-0.136,10.134,-7.100,-5.900,37.100,-1.281,2.656,-0.234
2019-05-26-01:55:21.108547,0.306,-0.141,10.107,-23.600,-6.700,26.900,-1.039,2.734,-0.188
2019-05-26-01:55:21.218153,0.297,-0.177,10.146,1.600,-6.800,15.900,-0.898,2.664,0.039
2019-05-26-01:55:21.327791,0.266,-0.227,10.131,-15.900,-5.400,47.600,-1.328,2.711,-0.047
2019-05-26-01:55:21.437575,0.306,-0.201,10.138,-18.500,-7.500,16.000,-1.094,2.672,0.125
2019-05-26-01:55:21.547276,0.318,-0.132,10.124,-1.900,-5.800,27.500,-1.234,2.969,-0.102
2019-05-26-01:55:21.657045,0.335,-0.103,10.098,-3.000,-4.900,37.300,-0.914,2.820,-0.008
2019-05-26-01:55:21.767169,0.294,-0.144,10.138,-25.800,-6.600,32.700,-0.633,2.766,-0.078
2019-05-26-01:55:21.877089,0.254,-0.232,10.143,-3.700,-7.300,12.500,-0.656,2.352,-0.031
2019-05-26-01:55:21.986784,0.287,-0.215,10.124,-15.500,-7.100,42.700,-0.641,2.773,0.039
2019-05-26-01:55:22.096441,0.321,-0.163,10.138,-17.000,-8.100,16.000,-1.250,2.734,-0.055
2019-05-26-01:55:22.206502,0.325,-0.117,10.071,2.200,-5.800,27.000,-1.164,2.648,-0.141
2019-05-26-01:55:22.316139,0.335,-0.144,10.122,-24.000,-5.700,44.400,-0.727,2.797,-0.203
2019-05-26-01:55:22.427988,0.261,-0.215,10.131,-9.900,-7.600,11.300,-1.227,2.680,-0.102
2019-05-26-01:55:22.537746,0.287,-0.237,10.134,-8.900,-5.700,38.600,-1.047,2.742,-0.188
2019-05-26-01:55:22.647485,0.297,-0.170,10.119,-23.100,-7.700,23.800,-1.258,2.797,0.078
2019-05-26-01:55:22.758040,0.333,-0.124,10.071,2.100,-6.100,15.400,-0.938,2.883,-0.070
2019-05-26-01:55:22.868059,0.342,-0.134,10.112,-17.300,-3.900,47.200,-0.844,2.852,-0.148
2019-05-26-01:55:22.981736,0.278,-0.187,10.124,1.400,-4.800,24.300,-0.852,2.570,-0.078
2019-05-26-01:55:23.091375,0.282,-0.230,10.150,-20.900,-4.200,47.600,-0.984,2.586,-0.094
2019-05-26-01:55:23.200972,0.278,-0.199,10.174,-13.300,-7.700,13.700,-0.875,2.742,-0.250
2019-05-26-01:55:23.310693,0.323,-0.153,10.071,-3.400,-6.800,30.400,-1.094,2.719,-0.305
2019-05-26-01:55:23.420777,0.323,-0.139,10.095,-25.000,-7.000,31.900,-0.914,2.594,-0.117
2019-05-26-01:55:23.530635,0.278,-0.177,10.148,-24.200,-6.200,30.000,-0.938,2.625,-0.125
2019-05-26-01:55:23.640345,0.280,-0.218,10.143,-1.100,-7.000,14.200,-1.164,2.906,-0.078
2019-05-26-01:55:23.750074,0.290,-0.208,10.167,-16.400,-5.600,42.200,-0.797,2.562,-0.102
2019-05-26-01:55:23.859790,0.316,-0.175,10.081,-16.900,-7.700,13.500,-1.188,2.609,-0.047
2019-05-26-01:55:23.969424,0.328,-0.144,10.076,0.700,-5.600,28.300,-1.359,2.758,-0.164
2019-05-26-01:55:24.079131,0.306,-0.139,10.124,-22.600,-4.900,43.300,-1.070,2.641,0.055
2019-05-26-01:55:24.189117,0.294,-0.201,10.138,-8.300,-8.200,10.200,-0.969,2.789,0.125
2019-05-26-01:55:24.298994,0.287,-0.218,10.141,-7.200,-5.600,35.300,-1.000,2.625,0.039
2019-05-26-01:55:24.409144,0.304,-0.189,10.129,-24.600,-7.600,27.500,-0.945,2.812,0.195
2019-05-26-01:55:24.519109,0.316,-0.132,10.102,0.700,-6.400,15.100,-1.141,2.992,-0.031
2019-05-26-01:55:24.629151,0.321,-0.136,10.114,-13.800,-5.100,47.200,-1.125,2.445,0.039
2019-05-26-01:55:24.738876,0.270,-0.179,10.129,-18.800,-7.500,18.100,-0.727,2.906,0.234
2019-05-26-01:55:24.848598,0.270,-0.225,10.193,-0.700,-7.100,22.500,-0.961,2.719,-0.258
2019-05-26-01:55:24.958238,0.292,-0.211,10.150,-21.800,-6.200,39.000,-1.469,2.719,-0.164
2019-05-26-01:55:25.067808,0.309,-0.156,10.124,-8.300,-7.600,7.900,-1.164,2.625,0.195
2019-05-26-01:55:25.177385,0.285,-0.206,10.117,-1.600,-5.000,34.600,-1.070,2.891,-0.055
2019-05-26-01:55:25.286945,0.268,-0.225,10.148,-25.000,-7.500,35.600,-1.258,2.695,-0.102
2019-05-26-01:55:25.396935,0.313,-0.170,10.124,-3.600,-8.600,10.300,-1.125,2.602,0.039
2019-05-26-01:55:25.506779,0.333,-0.141,10.102,-10.900,-6.100,39.100,-0.680,2.781,-0.234
2019-05-26-01:55:25.616610,0.311,-0.132,10.114,-19.800,-8.000,19.400,-0.938,2.891,-0.188
2019-05-26-01:55:25.726230,0.290,-0.177,10.105,2.200,-6.600,15.500,-0.797,2.719,-0.008
2019-05-26-01:55:25.836372,0.273,-0.218,10.146,-17.200,-4.900,46.600,-1.125,2.797,0.172
2019-05-26-01:55:25.946158,0.301,-0.201,10.119,-17.700,-7.900,13.600,-0.586,2.766,-0.047
2019-05-26-01:55:26.055740,0.342,-0.177,10.088,-10.100,-7.400,10.300,-0.852,2.672,-0.148
2019-05-26-01:55:26.165285,0.330,-0.112,10.124,-1.100,-5.600,33.000,-1.008,2.719,-0.141
2019-05-26-01:55:26.274836,0.301,-0.156,10.122,-24.700,-7.000,37.400,-0.773,2.914,-0.141
2019-05-26-01:55:26.384606,0.280,-0.203,10.148,-5.400,-8.000,10.700,-1.109,2.891,-0.258
2019-05-26-01:55:26.494415,0.273,-0.223,10.129,-9.900,-5.900,39.100,-1.242,3.188,-0.148
2019-05-26-01:55:26.604525,0.309,-0.167,10.131,-20.800,-8.100,21.200,-0.961,2.844,-0.141
2019-05-26-01:55:26.714294,0.340,-0.122,10.141,2.200,-5.900,17.100,-0.766,2.719,-0.305
2019-05-26-01:55:26.823861,0.345,-0.151,10.086,-18.300,-4.800,45.800,-0.891,2.609,-0.297
2019-05-26-01:55:26.933637,0.313,-0.167,10.126,-16.000,-7.600,13.600,-0.570,2.859,0.039
2019-05-26-01:55:27.043669,0.278,-0.230,10.167,-1.400,-6.800,29.600,-0.969,2.609,-0.102
2019-05-26-01:55:27.153271,0.290,-0.211,10.155,-23.400,-7.100,35.000,-0.969,2.570,-0.164
2019-05-26-01:55:27.262823,0.309,-0.170,10.098,-3.100,-7.600,9.900,-0.977,2.875,0.133
2019-05-26-01:55:27.372669,0.290,-0.213,10.153,-7.800,-5.000,42.700,-0.414,2.758,-0.141
2019-05-26-01:55:27.482430,0.273,-0.246,10.095,-23.200,-7.300,26.300,-1.070,2.461,0.008
2019-05-26-01:55:27.592101,0.309,-0.158,10.124,-0.700,-6.200,15.800,-1.016,2.734,-0.070
2019-05-26-01:55:27.701685,0.313,-0.124,10.126,-18.100,-5.600,39.500,-1.602,2.719,-0.180
2019-05-26-01:55:27.811652,0.297,-0.156,10.098,-12.700,-7.900,10.400,-0.961,2.734,-0.125
2019-05-26-01:55:27.921575,0.285,-0.187,10.134,-0.700,-4.500,33.600,-0.750,2.680,-0.258
2019-05-26-01:55:28.035446,0.301,-0.151,10.098,-24.500,-6.500,38.100,-0.773,2.672,-0.367
2019-05-26-01:55:28.145062,0.311,-0.208,10.160,-5.400,-8.700,9.500,-1.008,2.820,-0.125
2019-05-26-01:55:28.255035,0.316,-0.132,10.143,-9.200,-5.300,39.900,-0.953,2.562,0.078
2019-05-26-01:55:28.364809,0.328,-0.139,10.110,-20.600,-6.900,19.100,-1.156,2.742,-0.148
2019-05-26-01:55:28.474511,0.306,-0.184,10.134,3.300,-7.500,16.700,-0.828,2.758,-0.328
2019-05-26-01:55:28.584316,0.292,-0.213,10.136,-19.400,-5.900,47.200,-0.922,2.625,-0.117
2019-05-26-01:55:28.694044,0.278,-0.220,10.138,-14.500,-8.400,12.300,-0.922,2.742,-0.070
2019-05-26-01:55:28.803648,0.333,-0.156,10.119,-2.800,-5.400,28.500,-0.938,2.742,-0.203
2019-05-26-01:55:28.913421,0.342,-0.129,10.064,-22.400,-7.100,34.900,-1.008,2.867,-0.148
2019-05-26-01:55:29.023463,0.311,-0.153,10.143,-4.900,-7.600,9.900,-0.828,2.734,-0.180
2019-05-26-01:55:29.133107,0.287,-0.227,10.146,-6.700,-5.100,43.000,-0.898,2.648,-0.297
2019-05-26-01:55:29.242652,0.275,-0.213,10.138,-13.000,-6.400,43.000,-0.875,2.820,-0.305
2019-05-26-01:55:29.352430,0.294,-0.187,10.158,-20.300,-7.200,20.000,-1.188,2.539,-0.047
2019-05-26-01:55:29.462459,0.328,-0.136,10.102,2.600,-5.800,21.100,-0.625,2.625,-0.125
2019-05-26-01:55:29.572230,0.309,-0.136,10.122,-20.000,-4.700,47.700,-0.922,2.547,-0.164
2019-05-26-01:55:29.681879,0.270,-0.182,10.138,-15.100,-8.000,13.600,-1.141,2.688,0.336
2019-05-26-01:55:29.791442,0.268,-0.227,10.177,-1.600,-6.600,26.700,-1.500,2.562,0.125
2019-05-26-01:55:29.901932,0.294,-0.220,10.136,-23.300,-5.800,37.800,-1.414,2.688,0.055
2019-05-26-01:55:30.011696,0.311,-0.139,10.102,-5.300,-6.800,8.600,-1.258,2.539,-0.234
2019-05-26-01:55:30.121320,0.323,-0.136,10.069,-5.600,-3.900,40.900,-0.945,2.586,-0.180
2019-05-26-01:55:30.231288,0.299,-0.172,10.134,-25.200,-6.800,29.900,-1.062,2.867,-0.180
2019-05-26-01:55:30.341033,0.275,-0.237,10.141,-2.400,-7.400,13.000,-1.102,2.969,0.055
2019-05-26-01:55:30.450800,0.280,-0.230,10.150,-15.400,-5.100,40.700,-1.141,2.586,-0.055
2019-05-26-01:55:30.560724,0.318,-0.170,10.119,-18.100,-7.100,14.900,-1.086,2.484,-0.359
2019-05-26-01:55:30.670909,0.292,-0.112,10.093,2.200,-5.800,24.100,-0.266,2.891,-0.328
2019-05-26-01:55:30.782644,0.268,-0.244,10.138,-20.000,-4.600,44.600,-0.609,2.773,0.086
2019-05-26-01:55:30.892578,0.263,-0.199,10.136,-13.000,-7.500,11.600,-1.086,2.680,-0.070
2019-05-26-01:55:31.002191,0.294,-0.290,10.246,-3.700,-5.900,30.400,-1.219,2.992,0.016
2019-05-26-01:55:31.111760,0.309,-0.203,10.148,-25.100,-5.900,34.200,-1.258,2.711,-0.164
2019-05-26-01:55:31.221314,0.299,-0.141,10.107,-3.800,-5.900,8.400,-1.070,2.805,-0.055
2019-05-26-01:55:31.330872,0.270,-0.232,10.131,-4.500,-3.200,41.800,-1.062,2.562,-0.008
2019-05-26-01:55:31.440876,0.335,-0.268,10.146,-24.700,-6.100,29.600,-0.742,2.758,-0.094
2019-05-26-01:55:31.550703,0.201,-0.160,9.988,-1.900,-5.100,12.900,-0.891,2.500,-0.125
2019-05-26-01:55:31.660573,0.292,-0.134,10.071,-14.000,-4.800,42.400,-1.000,2.703,0.148
2019-05-26-01:55:31.770219,0.330,-0.053,10.134,-19.200,-6.800,17.400,-1.250,2.797,-0.180
2019-05-26-01:55:31.880229,0.282,-0.234,10.150,1.400,-6.500,20.500,-0.602,2.633,-0.047
2019-05-26-01:55:31.989896,0.294,-0.246,10.174,-18.200,-5.200,46.700,-1.164,2.477,-0.008
2019-05-26-01:55:32.099492,0.287,-0.196,10.119,-21.700,-6.700,38.800,-0.828,2.914,-0.078
2019-05-26-01:55:32.209154,0.311,-0.129,10.079,-11.100,-8.300,9.900,-1.109,2.734,0.008
2019-05-26-01:55:32.318764,0.325,-0.124,10.102,0.000,-3.500,32.700,-1.078,2.984,0.016
2019-05-26-01:55:32.428560,0.311,-0.172,10.117,-24.200,-5.300,41.500,-1.266,2.766,-0.211
2019-05-26-01:55:32.538302,0.290,-0.246,10.167,-9.300,-8.800,8.200,-0.828,2.719,-0.148
2019-05-26-01:55:32.648241,0.270,-0.225,10.162,-4.500,-5.200,32.400,-1.203,2.891,-0.078
2019-05-26-01:55:32.757879,0.304,-0.182,10.107,-23.500,-6.000,29.800,-0.945,2.570,-0.188
2019-05-26-01:55:32.867570,0.318,-0.115,10.083,-4.000,-7.400,8.300,-1.016,2.719,-0.125
2019-05-26-01:55:32.982281,0.316,-0.134,10.107,-6.000,-4.800,40.400,-1.086,2.867,-0.227
2019-05-26-01:55:33.096482,0.292,-0.132,10.110,-5.100,-7.500,9.100,-0.812,2.492,-0.070
2019-05-26-01:55:33.206303,0.280,-0.136,10.112,-5.500,-5.200,39.400,-1.086,2.625,0.008
2019-05-26-01:55:33.316001,0.311,-0.211,10.146,-24.600,-6.900,31.300,-1.273,2.445,0.055
2019-05-26-01:55:33.425787,0.318,-0.167,10.100,-5.500,-7.000,8.500,-1.086,2.695,-0.188
2019-05-26-01:55:33.535521,0.309,-0.117,10.093,-8.300,-6.500,38.900,-1.062,2.648,-0.211
2019-05-26-01:55:33.645138,0.330,-0.122,10.122,-23.000,-7.000,25.200,-0.844,2.719,-0.047
2019-05-26-01:55:33.754753,0.294,-0.201,10.143,-1.000,-6.200,9.600,-0.656,2.844,-0.383
2019-05-26-01:55:33.864691,0.263,-0.208,10.138,-7.800,-3.200,41.300,-1.117,2.812,0.031
2019-05-26-01:55:33.974438,0.287,-0.196,10.155,-24.000,-6.200,31.200,-0.969,2.562,-0.305
2019-05-26-01:55:34.084038,0.313,-0.163,10.086,-20.800,-7.400,20.500,-1.156,2.609,-0.031
2019-05-26-01:55:34.194259,0.323,-0.129,10.102,0.700,-7.100,13.400,-1.141,2.672,-0.305
2019-05-26-01:55:34.303905,0.297,-0.156,10.079,-10.200,-3.500,44.300,-0.953,2.539,0.289
2019-05-26-01:55:34.414005,0.299,-0.196,10.117,-24.200,-6.800,26.800,-0.836,2.617,-0.164
2019-05-26-01:55:34.523946,0.268,-0.213,10.189,-3.300,-7.000,11.500,-0.812,2.859,0.078
2019-05-26-01:55:34.633715,0.301,-0.201,10.146,-10.300,-3.900,38.300,-1.141,2.820,-0.023
2019-05-26-01:55:34.743367,0.328,-0.184,10.076,-24.000,-7.100,26.700,-0.984,2.688,0.078
2019-05-26-01:55:34.853078,0.325,-0.112,10.102,-1.500,-6.700,7.700,-1.047,2.523,-0.094
2019-05-26-01:55:34.962733,0.318,-0.115,10.126,-6.200,-3.400,39.100,-0.805,2.852,-0.148
2019-05-26-01:55:35.072760,0.299,-0.175,10.117,-24.800,-6.000,34.700,-0.781,2.844,-0.227
2019-05-26-01:55:35.182588,0.278,-0.220,10.138,-7.200,-7.300,10.500,-0.305,2.789,0.055
2019-05-26-01:55:35.292198,0.297,-0.208,10.181,-3.100,-6.500,30.800,-1.266,2.586,-0.094
2019-05-26-01:55:35.402111,0.304,-0.191,10.124,-23.700,-6.400,35.700,-0.852,2.703,0.172
2019-05-26-01:55:35.511861,0.311,-0.141,10.114,-10.800,-8.100,7.700,-0.984,2.891,-0.102
2019-05-26-01:55:35.621501,0.294,-0.098,10.119,1.700,-4.900,24.900,-1.227,2.586,-0.273
2019-05-26-01:55:35.731108,0.280,-0.232,10.146,-19.400,-4.800,45.500,-0.773,2.586,-0.047
2019-05-26-01:55:35.840843,0.311,-0.189,10.155,-18.900,-6.900,17.400,-1.023,3.078,-0.078
2019-05-26-01:55:35.950576,0.304,-0.139,10.110,0.000,-7.000,17.400,-0.945,2.977,-0.117
2019-05-26-01:55:36.060177,0.325,-0.117,10.112,-14.700,-4.900,42.000,-1.117,2.828,0.109
2019-05-26-01:55:36.169742,0.311,-0.146,10.131,-21.400,-6.800,22.700,-0.992,2.852,-0.227
2019-05-26-01:55:36.279723,0.273,-0.215,10.186,0.600,-6.200,12.000,-0.914,2.672,0.016
2019-05-26-01:55:36.389544,0.258,-0.196,10.201,-6.400,-4.500,40.900,-0.914,2.891,0.016
2019-05-26-01:55:36.499316,0.268,-0.206,10.141,-25.100,-6.100,34.500,-0.922,2.828,-0.344
2019-05-26-01:55:36.609348,0.292,-0.196,10.100,-24.300,-7.100,29.200,-1.086,3.055,-0.141
2019-05-26-01:55:36.719139,0.297,-0.148,10.138,-5.200,-6.900,8.200,-1.383,2.547,-0.031
2019-05-26-01:55:36.828804,0.294,-0.091,10.064,-1.400,-4.600,34.200,-1.203,2.625,0.078
2019-05-26-01:55:36.938592,0.290,-0.206,10.131,-23.100,-5.300,41.600,-0.750,2.711,-0.211
2019-05-26-01:55:37.048199,0.290,-0.225,10.143,-13.900,-6.700,11.900,-1.312,2.758,0.031
2019-05-26-01:55:37.157769,0.299,-0.232,10.148,-1.300,-5.900,24.300,-1.188,2.734,-0.227
2019-05-26-01:55:37.267358,0.297,-0.191,10.062,-21.500,-5.900,41.300,-1.133,2.805,-0.180
2019-05-26-01:55:37.377242,0.297,-0.177,10.110,-16.700,-7.600,12.500,-0.984,2.805,-0.164
2019-05-26-01:55:37.487305,0.323,-0.122,10.105,0.600,-5.400,21.200,-0.781,2.805,-0.188
2019-05-26-01:55:37.597193,0.318,-0.146,10.119,-14.800,-5.100,46.400,-0.945,2.586,-0.164
2019-05-26-01:55:37.712478,0.292,-0.196,10.141,0.200,-6.000,11.100,-0.797,2.734,-0.008
2019-05-26-01:55:37.822536,0.278,-0.211,10.186,-6.900,-4.100,42.900,-0.805,2.812,0.031
2019-05-26-01:55:37.932492,0.304,-0.218,10.148,-24.700,-5.400,36.100,-1.008,2.633,-0.180
2019-05-26-01:55:38.042144,0.311,-0.191,10.112,-23.900,-6.400,31.600,-0.898,2.750,0.109
2019-05-26-01:55:38.156143,0.304,-0.120,10.093,-2.700,-5.900,29.500,-1.305,2.711,-0.180
2019-05-26-01:55:38.266120,0.323,-0.129,10.076,-21.700,-6.300,38.700,-1.227,2.852,-0.188
2019-05-26-01:55:38.376034,0.290,-0.187,10.107,-13.100,-7.400,10.500,-1.406,2.828,-0.094
2019-05-26-01:55:38.485727,0.297,-0.211,10.136,1.600,-6.000,23.500,-1.180,2.625,-0.203
2019-05-26-01:55:38.601837,0.280,-0.232,10.162,-13.900,-4.500,44.700,-0.695,2.766,-0.180
2019-05-26-01:55:38.711496,0.278,-0.187,10.148,-22.500,-7.100,27.300,-1.016,2.758,-0.305
2019-05-26-01:55:38.821095,0.270,-0.218,10.189,-4.000,-6.400,10.000,-1.234,2.766,-0.125
2019-05-26-01:55:38.930870,0.287,-0.223,10.153,-5.900,-5.500,35.700,-0.922,2.648,-0.203
2019-05-26-01:55:39.040897,0.321,-0.203,10.110,-24.400,-5.900,32.000,-1.234,2.680,-0.258
2019-05-26-01:55:39.150645,0.318,-0.139,10.093,-8.500,-7.400,7.900,-1.453,2.711,-0.141
2019-05-26-01:55:39.262238,0.301,-0.115,10.069,-0.300,-4.900,30.700,-1.094,2.477,-0.164
2019-05-26-01:55:39.372056,0.321,-0.160,10.074,-20.700,-4.600,43.700,-1.016,2.820,-0.078
2019-05-26-01:55:39.482000,0.270,-0.203,10.158,-18.700,-7.200,17.000,-1.016,2.914,-0.180
2019-05-26-01:55:39.591639,0.282,-0.220,10.160,-1.600,-7.100,17.400,-1.234,2.500,-0.008
2019-05-26-01:55:39.701247,0.297,-0.225,10.136,-15.000,-6.100,40.600,-1.156,2.562,-0.281
2019-05-26-01:55:39.811171,0.311,-0.163,10.110,-23.000,-7.600,24.200,-1.023,2.789,0.055
2019-05-26-01:55:39.921012,0.335,-0.105,10.083,-1.400,-7.300,9.600,-1.094,2.688,0.125
2019-05-26-01:55:40.030730,0.270,-0.127,10.098,-5.500,-4.300,39.900,-1.203,2.508,-0.141
2019-05-26-01:55:40.140312,0.280,-0.215,10.148,-24.200,-6.600,39.500,-0.727,2.719,-0.180
2019-05-26-01:55:40.250302,0.301,-0.206,10.131,-11.900,-7.600,11.800,-1.234,2.734,-0.070
2019-05-26-01:55:40.360109,0.325,-0.129,10.114,-1.000,-5.900,24.300,-0.984,2.523,-0.047
2019-05-26-01:55:40.469868,0.328,-0.110,10.093,-19.400,-4.800,40.000,-1.047,2.906,-0.227
2019-05-26-01:55:40.579537,0.318,-0.144,10.110,-18.500,-8.000,16.200,-0.844,2.906,-0.227
2019-05-26-01:55:40.689278,0.292,-0.208,10.134,0.800,-5.800,14.900,-0.844,2.672,0.008
2019-05-26-01:55:40.799028,0.282,-0.225,10.162,-10.500,-4.100,43.200,-0.969,2.672,-0.125
2019-05-26-01:55:40.908900,0.290,-0.220,10.131,-24.200,-6.100,32.600,-0.922,2.891,-0.203
2019-05-26-01:55:41.018948,0.287,-0.179,10.131,-6.700,-7.700,10.200,-1.164,2.820,0.031
2019-05-26-01:55:41.128601,0.335,-0.127,10.083,-4.400,-6.900,10.100,-0.695,2.680,-0.031
2019-05-26-01:55:41.238157,0.313,-0.144,10.126,-1.100,-5.100,32.400,-1.203,2.766,-0.055
2019-05-26-01:55:41.348013,0.294,-0.156,10.119,-22.400,-6.500,42.400,-0.703,2.633,-0.102
2019-05-26-01:55:41.458109,0.292,-0.208,10.131,-17.400,-8.700,13.000,-1.094,2.758,0.055
2019-05-26-01:55:41.567893,0.268,-0.211,10.155,-0.300,-6.700,19.000,-1.227,2.953,-0.250
2019-05-26-01:55:41.677569,0.304,-0.213,10.143,-16.400,-5.400,40.100,-1.320,2.672,0.109
2019-05-26-01:55:41.787191,0.325,-0.153,10.110,-22.200,-7.000,23.700,-0.781,2.680,-0.094
2019-05-26-01:55:41.896948,0.321,-0.120,10.105,-3.500,-7.100,9.100,-1.500,2.625,-0.258
2019-05-26-01:55:42.006803,0.306,-0.115,10.079,-3.600,-4.900,37.100,-1.258,2.367,-0.070
2019-05-26-01:55:42.120428,0.285,-0.220,10.141,-24.400,-5.100,40.400,-0.969,2.859,0.109
2019-05-26-01:55:42.231525,0.323,-0.184,10.148,-22.400,-6.200,36.000,-1.359,2.625,-0.023
2019-05-26-01:55:42.346110,0.292,-0.144,10.093,-11.800,-8.100,9.800,-1.125,2.578,0.031
2019-05-26-01:55:42.460850,0.345,-0.120,10.076,1.000,-5.000,25.600,-0.805,2.797,-0.031
2019-05-26-01:55:42.574716,0.311,-0.148,10.095,-16.300,-4.800,45.500,-0.750,2.531,0.078
2019-05-26-01:55:42.686672,0.294,-0.213,10.153,-22.100,-7.200,22.400,-0.930,2.812,0.031
2019-05-26-01:55:42.801275,0.316,-0.170,10.162,-4.200,-7.400,12.800,-0.656,2.719,-0.211
2019-05-26-01:55:42.914327,0.325,-0.132,10.064,-7.700,-5.900,36.700,-1.148,2.898,0.062
2019-05-26-01:55:43.028719,0.321,-0.112,10.100,-23.900,-7.300,30.700,-0.625,2.711,-0.023
2019-05-26-01:55:43.142608,0.297,-0.191,10.124,-8.500,-8.300,8.300,-1.266,2.734,-0.125
2019-05-26-01:55:43.260991,0.292,-0.127,10.114,-0.900,-4.700,30.400,-0.797,2.508,-0.047
2019-05-26-01:55:43.371955,0.292,-0.232,10.167,-20.700,-5.200,45.200,-0.742,2.609,-0.188
2019-05-26-01:55:43.482465,0.297,-0.191,10.136,-21.400,-6.000,40.900,-1.422,2.719,-0.078
2019-05-26-01:55:43.592791,0.328,-0.148,10.112,-17.100,-7.600,14.400,-0.844,2.547,-0.430
2019-05-26-01:55:43.704770,0.278,-0.227,10.134,1.100,-5.800,18.400,-0.891,2.828,-0.234
2019-05-26-01:55:43.825376,0.306,-0.141,10.131,-12.600,-5.100,46.700,-0.852,2.461,-0.125
2019-05-26-01:55:43.939013,0.309,-0.187,10.105,-24.400,-7.000,28.700,-1.000,2.711,0.016
2019-05-26-01:55:44.052849,0.287,-0.206,10.181,-4.800,-8.300,10.300,-1.289,2.742,-0.023
2019-05-26-01:55:44.164277,0.301,-0.139,10.098,-7.700,-5.700,34.500,-0.992,2.828,-0.141
2019-05-26-01:55:44.277698,0.316,-0.129,10.088,-24.100,-6.700,34.100,-0.992,2.953,-0.383
2019-05-26-01:55:44.388973,0.297,-0.172,10.138,-24.400,-5.700,39.000,-1.055,2.625,0.039
2019-05-26-01:55:44.499621,0.268,-0.223,10.191,-11.600,-8.900,10.400,-0.680,2.734,-0.078
2019-05-26-01:55:44.610386,0.321,-0.132,10.079,-1.500,-7.100,23.600,-1.289,2.508,-0.297
2019-05-26-01:55:44.722938,0.325,-0.122,10.105,-19.100,-5.700,40.600,-0.969,3.039,-0.117
2019-05-26-01:55:44.836406,0.321,-0.139,10.105,-19.000,-8.300,17.000,-0.758,2.750,0.016
2019-05-26-01:55:44.949689,0.309,-0.201,10.122,0.500,-5.900,14.700,-0.758,2.820,0.016
2019-05-26-01:55:45.061013,0.266,-0.227,10.167,-2.400,-7.700,14.300,-0.977,2.555,0.086
2019-05-26-01:55:45.173952,0.282,-0.213,10.119,-9.900,-6.200,37.600,-1.016,2.906,-0.094
2019-05-26-01:55:45.284733,0.287,-0.191,10.102,-24.600,-6.900,28.600,-1.430,2.633,-0.234
2019-05-26-01:55:45.395722,0.301,-0.177,10.143,-6.300,-7.200,8.300,-1.039,2.625,-0.078
2019-05-26-01:55:45.506468,0.273,-0.201,10.167,-9.700,-7.700,8.400,-0.602,2.609,-0.070
2019-05-26-01:55:45.617196,0.280,-0.220,10.148,-3.000,-6.200,29.400,-0.891,2.625,-0.117
2019-05-26-01:55:45.729188,0.313,-0.194,10.112,-20.600,-7.200,40.100,-1.039,2.633,-0.227
2019-05-26-01:55:45.839562,0.311,-0.165,10.102,-17.100,-7.100,14.100,-0.891,2.867,-0.281
2019-05-26-01:55:45.952721,0.287,-0.199,10.126,1.400,-5.800,17.600,-0.609,2.672,-0.211
2019-05-26-01:55:46.065461,0.268,-0.234,10.196,-12.700,-4.600,47.000,-0.883,2.734,0.062
2019-05-26-01:55:46.177957,0.292,-0.211,10.143,-25.100,-6.800,30.400,-1.016,2.695,-0.125
2019-05-26-01:55:46.289552,0.309,-0.170,10.126,-23.400,-6.700,25.600,-1.039,2.695,-0.148
2019-05-26-01:55:46.400681,0.345,-0.093,10.095,-3.600,-7.100,9.900,-0.453,2.438,-0.117
2019-05-26-01:55:46.511206,0.316,-0.122,10.088,-1.300,-3.600,33.600,-1.109,2.742,-0.148
2019-05-26-01:55:46.621856,0.294,-0.223,10.160,-22.800,-5.300,41.700,-0.945,2.594,-0.164
2019-05-26-01:55:46.733603,0.304,-0.196,10.129,-17.000,-7.600,14.600,-1.133,2.398,-0.117
2019-05-26-01:55:46.844243,0.323,-0.148,10.107,-14.600,-7.500,10.400,-1.094,2.828,-0.078
2019-05-26-01:55:46.956821,0.325,-0.115,10.088,1.100,-5.500,20.900,-0.969,2.656,-0.273
2019-05-26-01:55:47.067826,0.328,-0.139,10.124,-13.800,-4.700,47.400,-0.961,2.648,-0.141
2019-05-26-01:55:47.180012,0.273,-0.206,10.126,-14.700,-15.800,49.300,-0.375,2.516,0.133
2019-05-26-01:55:47.292099,0.268,-0.234,10.165,-1.600,-15.500,23.100,-0.672,2.734,-0.180
2019-05-26-01:55:47.402924,0.321,-0.134,10.091,5.700,-19.400,51.400,-1.117,2.594,-0.320
2019-05-26-01:55:47.513663,0.311,-0.136,10.071,-9.800,-20.400,62.800,-0.938,2.969,-0.031
2019-05-26-01:55:47.624137,0.301,-0.158,10.146,-17.600,-12.700,64.700,-0.945,2.672,-0.070
2019-05-26-01:55:47.737785,0.280,-0.184,10.158,-2.800,-17.700,38.700,-1.039,2.633,-0.047
2019-05-26-01:55:47.849962,0.268,-0.220,10.167,8.600,-18.200,48.000,-0.805,2.391,-0.258
2019-05-26-01:55:47.962156,0.299,-0.208,10.158,-9.500,-18.400,62.900,-0.789,2.672,0.031
2019-05-26-01:55:48.074186,0.306,-0.146,10.100,-7.800,-20.500,40.600,-0.805,2.586,-0.117
2019-05-26-01:55:48.186147,0.313,-0.122,10.105,7.300,-14.700,39.500,-1.164,2.766,-0.180
2019-05-26-01:55:48.300495,0.313,-0.139,10.091,-3.800,-11.300,67.100,-0.844,2.805,-0.125
2019-05-26-01:55:48.411543,0.294,-0.206,10.174,-17.300,-15.800,55.500,-0.703,2.859,0.133
2019-05-26-01:55:48.522428,0.285,-0.213,10.196,3.300,-20.900,34.100,-1.352,2.594,-0.078
2019-05-26-01:55:48.638400,0.313,-0.220,10.146,-1.200,-14.400,53.500,-1.305,2.656,-0.117
2019-05-26-01:55:48.750036,0.299,-0.189,10.126,-8.200,-21.700,63.000,-0.930,2.883,0.031
2019-05-26-01:55:48.861152,0.309,-0.134,10.107,-3.100,-17.800,32.900,-0.977,2.609,-0.070
2019-05-26-01:55:48.973047,0.321,-0.105,10.088,11.900,-16.600,54.100,-1.023,3.070,0.109
2019-05-26-01:55:49.084788,0.316,-0.146,10.110,-10.200,-13.700,74.600,-0.602,2.719,-0.234
2019-05-26-01:55:49.196331,0.292,-0.201,10.141,-9.500,-22.000,45.000,-0.789,2.789,0.008
2019-05-26-01:55:49.307833,0.280,-0.227,10.179,6.000,-19.200,33.600,-1.211,2.719,-0.031
2019-05-26-01:55:49.418614,0.325,-0.129,10.105,1.400,-21.700,62.100,-0.914,2.797,-0.203
2019-05-26-01:55:49.529457,0.325,-0.122,10.107,-18.300,-13.500,49.100,-0.773,2.578,0.031
2019-05-26-01:55:49.639990,0.290,-0.189,10.143,8.500,-20.600,36.400,-0.875,2.977,-0.070
2019-05-26-01:55:49.751315,0.285,-0.211,10.167,3.900,-15.300,42.200,-1.016,2.711,-0.031
2019-05-26-01:55:49.861653,0.287,-0.225,10.136,4.000,-21.100,52.700,-0.703,2.906,-0.211
2019-05-26-01:55:49.973069,0.316,-0.175,10.126,-7.000,-23.200,66.100,-0.945,2.586,-0.141
2019-05-26-01:55:50.084664,0.290,-0.129,10.091,2.300,-22.300,28.600,-1.258,2.633,-0.383
2019-05-26-01:55:50.196063,0.333,-0.132,10.091,0.300,-7.300,58.500,-1.164,2.734,-0.273
2019-05-26-01:55:50.307336,0.309,-0.160,10.138,-4.700,-20.800,75.100,-0.953,2.797,0.055
2019-05-26-01:55:50.418004,0.292,-0.177,10.117,-4.700,-22.100,34.000,-0.969,2.859,0.031
2019-05-26-01:55:50.528588,0.325,-0.139,10.114,10.400,-18.100,51.300,-0.898,2.734,-0.125
2019-05-26-01:55:50.644456,0.318,-0.108,10.102,-14.000,-11.300,64.600,-1.047,2.766,-0.148
2019-05-26-01:55:50.755720,0.311,-0.167,10.102,-4.900,-23.700,43.700,-1.180,2.758,-0.055
2019-05-26-01:55:50.865487,0.294,-0.201,10.064,9.800,-14.600,46.300,-1.047,2.953,-0.078
2019-05-26-01:55:50.976846,0.275,-0.215,10.146,-1.600,-19.000,71.400,-1.398,2.586,-0.047
2019-05-26-01:55:51.087603,0.287,-0.201,10.146,-13.500,-21.100,51.500,-0.875,2.766,-0.031
2019-05-26-01:55:51.198837,0.316,-0.179,10.102,4.000,-16.000,41.900,-1.250,2.781,-0.258
2019-05-26-01:55:51.309941,0.328,-0.124,10.098,1.200,-16.200,65.100,-0.766,2.820,-0.148
2019-05-26-01:55:51.420486,0.330,-0.124,10.105,0.200,-17.300,63.800,-1.086,2.828,-0.211
2019-05-26-01:55:51.530975,0.306,-0.187,10.117,-10.000,-22.800,58.700,-1.086,2.562,-0.125
2019-05-26-01:55:51.641274,0.297,-0.206,10.136,5.800,-21.000,41.700,-0.797,2.500,-0.070
2019-05-26-01:55:51.752147,0.297,-0.208,10.193,7.000,-21.200,52.300,-1.266,2.547,-0.234
2019-05-26-01:55:51.862310,0.292,-0.203,10.134,-19.100,-13.000,57.200,-1.117,2.820,-0.359
2019-05-26-01:55:51.973572,0.337,-0.144,10.088,6.200,-24.000,39.500,-0.805,2.477,-0.188
2019-05-26-01:55:52.084649,0.287,-0.213,10.093,5.700,-12.400,51.500,-1.086,2.734,-0.305
2019-05-26-01:55:52.195585,0.285,-0.223,10.165,-6.300,-16.800,78.600,-0.844,2.680,-0.180
2019-05-26-01:55:52.306330,0.292,-0.208,10.158,-11.300,-20.200,38.200,-1.258,2.609,-0.023
2019-05-26-01:55:52.416774,0.306,-0.146,10.136,2.200,-8.500,46.200,-1.281,2.758,-0.328
2019-05-26-01:55:52.527173,0.340,-0.120,10.114,6.100,-7.500,48.200,-0.922,2.781,-0.164
2019-05-26-01:55:52.637372,0.311,-0.132,10.105,5.600,-25.400,75.700,-0.805,2.555,0.062
2019-05-26-01:55:52.748053,0.290,-0.196,10.143,-8.900,-26.600,44.700,-0.867,2.828,-0.180
2019-05-26-01:55:52.859142,0.275,-0.239,10.153,-1.200,-9.600,40.600,-0.969,2.938,-0.008
2019-05-26-01:55:52.969498,0.278,-0.223,10.165,5.800,-25.800,60.500,-1.188,2.914,-0.023
2019-05-26-01:55:53.079852,0.311,-0.175,10.091,-22.700,-11.400,48.800,-1.211,2.711,-0.078
2019-05-26-01:55:53.190761,0.325,-0.127,10.088,3.400,-11.900,37.500,-0.875,2.938,-0.258
2019-05-26-01:55:53.305506,0.328,-0.124,10.102,-4.500,-9.700,60.600,-1.281,2.719,-0.125
2019-05-26-01:55:53.415824,0.297,-0.179,10.112,-23.200,-13.700,54.800,-1.016,2.664,0.188
2019-05-26-01:55:53.526380,0.282,-0.208,10.165,-1.000,-11.600,41.100,-0.922,2.805,-0.047
2019-05-26-01:55:53.636538,0.299,-0.215,10.155,5.100,-12.900,63.900,-1.352,2.883,-0.031
2019-05-26-01:55:53.747282,0.323,-0.129,10.126,-4.000,-25.200,68.500,-0.898,2.734,0.039
2019-05-26-01:55:53.857355,0.299,-0.167,10.146,3.000,-20.200,42.300,-0.625,2.742,-0.273
2019-05-26-01:55:53.968200,0.292,-0.203,10.141,5.100,-14.400,48.800,-0.750,2.688,0.188
2019-05-26-01:55:54.079152,0.278,-0.218,10.169,-7.000,-21.200,71.600,-0.961,2.742,-0.094
2019-05-26-01:55:54.189421,0.301,-0.189,10.134,-4.000,-22.200,39.200,-1.250,2.594,-0.250
2019-05-26-01:55:54.299876,0.328,-0.136,10.117,-9.900,-16.100,26.900,-1.305,2.992,-0.258
2019-05-26-01:55:54.410062,0.321,-0.120,10.110,0.600,-3.600,24.500,-0.992,2.859,0.039
2019-05-26-01:55:54.520093,0.321,-0.141,10.117,-21.000,-3.600,47.000,-0.484,2.383,0.016
2019-05-26-01:55:54.630170,0.278,-0.187,10.098,-22.100,-6.600,17.600,-0.867,2.828,-0.023
2019-05-26-01:55:54.740957,0.268,-0.218,10.138,-2.000,-5.100,15.300,-0.805,2.672,-0.031
2019-05-26-01:55:54.851633,0.287,-0.227,10.136,-16.800,-3.500,40.500,-1.578,2.391,-0.078
2019-05-26-01:55:54.962511,0.311,-0.187,10.110,-21.900,-6.400,19.500,-1.016,2.758,-0.031
2019-05-26-01:55:55.073192,0.285,-0.196,10.088,-2.400,-5.200,9.700,-1.305,2.594,-0.250
2019-05-26-01:55:55.183713,0.258,-0.213,10.162,-8.100,-3.100,40.200,-0.602,2.758,-0.125
2019-05-26-01:55:55.294268,0.290,-0.213,10.169,-25.500,-5.300,32.000,-0.820,2.867,-0.125
2019-05-26-01:55:55.404296,0.297,-0.196,10.105,-8.600,-6.000,8.600,-0.805,2.766,-0.055
2019-05-26-01:55:55.514590,0.335,-0.134,10.091,-5.900,-4.500,31.200,-1.398,2.625,-0.031
2019-05-26-01:55:55.624607,0.325,-0.134,10.091,-5.300,-2.600,36.100,-0.727,2.688,0.055
2019-05-26-01:55:55.734878,0.309,-0.165,10.110,-25.500,-5.000,36.500,-0.781,2.914,-0.188
2019-05-26-01:55:55.845369,0.297,-0.206,10.136,-11.300,-5.700,8.800,-0.727,2.656,-0.031
2019-05-26-01:55:55.956164,0.270,-0.230,10.138,-5.200,-5.400,30.900,-0.984,2.742,-0.078
2019-05-26-01:55:56.066758,0.275,-0.213,10.124,-23.000,-4.300,35.700,-0.859,2.820,0.062
2019-05-26-01:55:56.177299,0.325,-0.151,10.100,-13.400,-5.800,9.600,-1.188,2.781,-0.078
2019-05-26-01:55:56.289716,0.304,-0.127,10.086,-0.600,-4.100,26.600,-1.156,2.648,-0.234
2019-05-26-01:55:56.399663,0.316,-0.156,10.124,-22.200,-4.100,45.900,-0.742,2.711,-0.188
2019-05-26-01:55:56.509639,0.285,-0.199,10.172,-19.600,-6.600,14.300,-0.484,2.914,-0.078
2019-05-26-01:55:56.619452,0.287,-0.220,10.179,-2.000,-5.800,20.400,-0.828,2.711,-0.047
2019-05-26-01:55:56.729943,0.352,-0.225,10.131,-19.300,-4.600,38.300,-1.508,2.688,0.016
2019-05-26-01:55:56.840384,0.309,-0.158,10.119,-20.300,-6.900,14.400,-1.352,2.539,-0.320
2019-05-26-01:55:56.950855,0.294,-0.201,10.122,1.000,-4.100,15.800,-1.039,2.570,-0.305
2019-05-26-01:55:57.067076,0.287,-0.227,10.146,-14.300,-3.800,45.500,-1.305,2.805,-0.203
2019-05-26-01:55:57.177483,0.285,-0.184,10.146,-24.000,-6.100,24.000,-0.781,2.633,-0.227
2019-05-26-01:55:57.287758,0.263,-0.208,10.148,-5.000,-6.400,11.700,-0.828,2.508,-0.117
2019-05-26-01:55:57.397582,0.301,-0.223,10.129,-11.600,-3.400,37.400,-0.656,2.828,-0.305
2019-05-26-01:55:57.507464,0.299,-0.184,10.136,-24.800,-6.300,25.700,-1.492,2.648,-0.070
2019-05-26-01:55:57.617215,0.292,-0.172,10.131,-3.400,-4.200,8.600,-0.906,2.664,0.156
2019-05-26-01:55:57.727252,0.280,-0.213,10.162,-6.200,-3.200,38.900,-0.961,2.828,-0.117
2019-05-26-01:55:57.837539,0.282,-0.232,10.150,-26.300,-4.400,37.700,-0.969,2.734,-0.117
2019-05-26-01:55:57.948047,0.290,-0.191,10.138,-9.900,-6.700,10.300,-1.117,2.836,0.211
2019-05-26-01:55:58.058461,0.323,-0.132,10.100,-4.600,-6.500,31.200,-0.797,2.969,-0.164
2019-05-26-01:55:58.168795,0.325,-0.136,10.107,-23.000,-5.000,36.400,-1.109,2.867,-0.359
2019-05-26-01:55:58.278939,0.297,-0.148,10.138,-23.700,-5.400,42.800,-1.094,2.719,-0.227
2019-05-26-01:55:58.392755,0.285,-0.211,10.155,1.000,-4.800,25.400,-0.844,2.719,-0.273
2019-05-26-01:55:58.502699,0.287,-0.223,10.143,-21.200,-4.300,46.200,-1.086,2.844,-0.031
2019-05-26-01:55:58.613092,0.297,-0.203,10.110,-18.400,-7.200,15.600,-1.227,2.625,-0.258
2019-05-26-01:55:58.723107,0.316,-0.151,10.119,-0.700,-5.000,17.700,-0.719,2.758,-0.180
2019-05-26-01:55:58.833423,0.325,-0.124,10.098,0.900,-4.100,24.400,-1.094,2.781,-0.148
2019-05-26-01:55:58.943529,0.311,-0.153,10.107,-16.400,-2.900,44.000,-0.750,2.609,0.008
2019-05-26-01:55:59.053647,0.294,-0.196,10.143,-21.600,-6.900,20.000,-0.852,2.742,-0.047
2019-05-26-01:55:59.164233,0.290,-0.223,10.162,-1.600,-5.400,16.800,-0.938,2.586,-0.023
2019-05-26-01:55:59.274490,0.282,-0.206,10.129,-14.700,-4.800,43.200,-0.945,2.742,-0.047
2019-05-26-01:55:59.384197,0.313,-0.175,10.107,-21.900,-6.700,23.200,-1.070,2.523,-0.164
2019-05-26-01:55:59.494231,0.313,-0.103,10.091,0.700,-3.900,13.700,-0.891,2.625,-0.023
2019-05-26-01:55:59.604565,0.328,-0.132,10.091,-9.400,-3.300,41.900,-0.867,2.656,-0.305
2019-05-26-01:55:59.714514,0.268,-0.172,10.126,-25.600,-5.300,30.900,-0.766,2.844,-0.055
2019-05-26-01:55:59.824661,0.311,-0.172,10.143,-4.900,-7.800,11.000,-0.914,2.719,-0.203
2019-05-26-01:55:59.934668,0.309,-0.132,10.131,-8.600,-5.700,36.400,-0.805,2.688,0.125
2019-05-26-01:56:00.044808,0.347,-0.139,10.083,-22.700,-6.400,26.200,-1.406,2.953,-0.344
2019-05-26-01:56:00.154956,0.292,-0.175,10.134,-3.700,-6.500,8.500,-1.141,2.625,0.039
2019-05-26-01:56:00.270995,0.287,-0.213,10.150,-4.500,-3.800,37.800,-0.898,2.625,0.281
2019-05-26-01:56:00.380896,0.301,-0.182,10.124,-23.900,-5.800,36.500,-0.680,2.586,-0.164
2019-05-26-01:56:00.491400,0.287,-0.199,10.162,-9.000,-7.700,10.000,-0.938,2.656,-0.406
2019-05-26-01:56:00.601699,0.321,-0.239,10.160,-4.100,-5.100,31.000,-1.234,2.977,-0.031
2019-05-26-01:56:00.711949,0.309,-0.203,10.122,-23.100,-5.800,37.400,-1.375,2.500,-0.234
2019-05-26-01:56:00.821951,0.299,-0.139,10.100,-8.700,-6.900,9.700,-0.961,2.766,-0.305
2019-05-26-01:56:00.931977,0.280,-0.201,10.172,-0.800,-4.300,32.300,-0.727,2.477,-0.203
2019-05-26-01:56:01.042066,0.278,-0.225,10.172,-22.400,-4.200,42.000,-0.922,2.656,-0.148
2019-05-26-01:56:01.152040,0.299,-0.196,10.105,-12.500,-6.200,12.400,-1.016,2.539,-0.117
2019-05-26-01:56:01.261993,0.325,-0.132,10.083,-2.700,-5.500,25.500,-1.148,2.734,0.016
2019-05-26-01:56:01.372076,0.342,-0.136,10.095,-22.600,-5.700,36.400,-0.805,2.484,-0.117
2019-05-26-01:56:01.483683,0.294,-0.153,10.114,-11.300,-6.900,10.400,-0.891,2.797,-0.125
2019-05-26-01:56:01.593879,0.270,-0.206,10.174,0.100,-2.800,28.300,-1.039,2.461,-0.117
2019-05-26-01:56:01.703765,0.285,-0.242,10.160,-22.300,-4.700,42.600,-1.617,2.883,-0.164
2019-05-26-01:56:01.813686,0.285,-0.196,10.150,-14.700,-7.400,12.900,-0.945,2.656,-0.281
2019-05-26-01:56:01.923835,0.304,-0.153,10.105,-11.100,-7.100,9.400,-0.688,2.750,0.305
2019-05-26-01:56:02.033681,0.306,-0.120,10.071,0.700,-4.000,30.700,-1.016,2.703,0.102
2019-05-26-01:56:02.143804,0.297,-0.144,10.107,-21.300,-3.700,43.300,-1.094,2.703,0.148
2019-05-26-01:56:02.253857,0.297,-0.191,10.138,-13.200,-7.200,13.000,-0.797,2.766,-0.023
2019-05-26-01:56:02.363830,0.273,-0.232,10.143,-0.100,-5.900,27.300,-1.102,2.844,0.102
2019-05-26-01:56:02.473880,0.290,-0.201,10.143,-21.100,-4.800,37.100,-1.336,2.656,-0.055
2019-05-26-01:56:02.583975,0.309,-0.160,10.112,-12.900,-7.100,9.100,-1.023,2.656,-0.344
2019-05-26-01:56:02.693997,0.328,-0.127,10.102,0.300,-4.200,27.700,-0.867,2.828,-0.367
2019-05-26-01:56:02.804051,0.325,-0.163,10.114,-22.100,-4.300,44.300,-1.156,2.781,-0.094
2019-05-26-01:56:02.913835,0.294,-0.203,10.131,-15.300,-6.700,12.400,-0.867,2.883,-0.148
2019-05-26-01:56:03.023829,0.318,-0.158,10.098,-0.500,-6.600,25.000,-1.164,2.484,-0.070
2019-05-26-01:56:03.134018,0.328,-0.134,10.098,-20.900,-6.100,39.700,-1.094,2.820,-0.164
2019-05-26-01:56:03.244006,0.292,-0.146,10.107,-13.200,-6.500,10.400,-0.898,2.867,-0.078
2019-05-26-01:56:03.353935,0.290,-0.191,10.158,0.800,-4.900,26.400,-0.875,2.867,-0.250
2019-05-26-01:56:03.468868,0.318,-0.146,10.126,-19.600,-4.200,46.100,-0.562,2.781,-0.055
2019-05-26-01:56:03.579036,0.282,-0.208,10.148,-16.300,-7.100,13.400,-0.867,2.609,-0.031
2019-05-26-01:56:03.688840,0.299,-0.227,10.155,-1.000,-6.400,21.000,-0.867,2.719,-0.203
2019-05-26-01:56:03.798969,0.335,-0.134,10.093,-20.300,-4.500,41.500,-0.680,2.742,-0.148
2019-05-26-01:56:03.909150,0.304,-0.163,10.105,-14.600,-6.800,10.700,-0.672,2.852,-0.023
2019-05-26-01:56:04.019196,0.292,-0.203,10.167,2.600,-5.300,25.800,-0.891,2.422,-0.031
2019-05-26-01:56:04.129012,0.275,-0.215,10.129,-20.400,-4.400,45.900,-0.727,2.508,-0.023
2019-05-26-01:56:04.239013,0.280,-0.203,10.155,-17.000,-7.000,13.400,-0.883,3.039,-0.203
2019-05-26-01:56:04.349197,0.309,-0.132,10.117,0.000,-6.000,22.800,-0.805,2.969,-0.391
2019-05-26-01:56:04.459202,0.321,-0.129,10.045,-20.600,-4.900,39.800,-1.047,2.828,-0.078
2019-05-26-01:56:04.569259,0.299,-0.153,10.095,-12.600,-6.800,11.100,-0.742,2.711,-0.164
2019-05-26-01:56:04.681524,0.294,-0.189,10.155,1.700,-5.100,26.100,-0.891,2.523,-0.328
2019-05-26-01:56:04.791516,0.285,-0.218,10.155,-20.900,-4.300,46.100,-0.891,2.844,-0.008
2019-05-26-01:56:04.901147,0.297,-0.203,10.136,-16.100,-6.800,12.000,-1.109,2.883,-0.094
2019-05-26-01:56:05.011162,0.321,-0.148,10.126,-11.100,-6.800,9.100,-1.094,2.719,-0.180
2019-05-26-01:56:05.121312,0.321,-0.132,10.081,0.800,-4.400,27.600,-1.117,2.773,0.078
2019-05-26-01:56:05.231236,0.290,-0.151,10.098,-21.600,-4.400,43.400,-1.250,2.539,-0.328
2019-05-26-01:56:05.341134,0.280,-0.199,10.114,-14.100,-6.500,11.800,-0.969,2.672,-0.047
2019-05-26-01:56:05.451012,0.278,-0.234,10.160,-1.700,-5.800,25.100,-0.992,2.852,-0.055
2019-05-26-01:56:05.561326,0.287,-0.208,10.114,-22.400,-6.500,38.000,-1.289,2.711,-0.227
2019-05-26-01:56:05.671231,0.321,-0.148,10.119,-10.600,-7.100,9.600,-0.766,2.453,-0.203
2019-05-26-01:56:05.781126,0.318,-0.132,10.074,0.100,-4.500,30.300,-0.961,2.797,-0.344
2019-05-26-01:56:05.890931,0.297,-0.160,10.107,-23.000,-4.500,41.500,-0.781,2.656,-0.094
2019-05-26-01:56:06.000893,0.282,-0.187,10.146,-11.700,-7.300,12.300,-0.578,2.586,-0.180
2019-05-26-01:56:06.110887,0.316,-0.232,10.153,-3.200,-4.200,31.600,-1.133,2.609,-0.164
2019-05-26-01:56:06.220813,0.333,-0.134,10.091,-22.400,-5.500,36.000,-0.945,2.680,-0.102
2019-05-26-01:56:06.330939,0.297,-0.177,10.119,-10.700,-6.700,8.300,-1.109,2.930,-0.125
2019-05-26-01:56:06.440855,0.282,-0.199,10.153,-0.300,-3.700,33.300,-0.867,2.547,-0.031
2019-05-26-01:56:06.550853,0.275,-0.239,10.148,-24.600,-3.900,41.000,-1.289,2.695,-0.055
2019-05-26-01:56:06.660747,0.306,-0.191,10.141,-11.100,-7.000,9.200,-0.805,2.562,-0.008
2019-05-26-01:56:06.770981,0.316,-0.136,10.100,-3.100,-5.700,31.300,-0.898,2.711,-0.078
2019-05-26-01:56:06.880732,0.313,-0.127,10.105,-22.700,-6.100,35.000,-0.805,2.820,-0.391
2019-05-26-01:56:06.990828,0.287,-0.163,10.114,-7.600,-6.800,9.000,-0.859,2.648,0.055
2019-05-26-01:56:07.100765,0.285,-0.220,10.169,-7.300,-7.000,11.200,-0.703,2.648,0.008
2019-05-26-01:56:07.210674,0.282,-0.225,10.160,-6.700,-5.500,35.400,-1.430,2.523,-0.125
2019-05-26-01:56:07.320465,0.299,-0.182,10.165,-24.100,-6.800,26.500,-1.234,2.594,-0.328
2019-05-26-01:56:07.430294,0.323,-0.132,10.083,-1.700,-6.300,8.400,-1.172,2.758,0.086
2019-05-26-01:56:07.540430,0.318,-0.122,10.093,-6.800,-3.200,41.500,-0.938,2.648,-0.102
2019-05-26-01:56:07.650203,0.301,-0.175,10.138,-24.100,-6.200,30.300,-0.969,2.797,-0.125
2019-05-26-01:56:07.759998,0.275,-0.227,10.177,-4.600,-7.500,9.700,-0.922,2.695,-0.320
2019-05-26-01:56:07.869799,0.292,-0.223,10.172,-8.500,-4.800,37.300,-0.805,2.414,-0.102
2019-05-26-01:56:07.979890,0.318,-0.172,10.134,-23.600,-6.200,25.700,-1.070,2.781,-0.305
2019-05-26-01:56:08.089765,0.333,-0.129,10.081,-0.900,-6.500,10.200,-0.828,2.734,-0.211
2019-05-26-01:56:08.199641,0.275,-0.127,10.091,-10.000,-4.400,42.300,-0.719,2.883,-0.102
2019-05-26-01:56:08.309427,0.290,-0.211,10.150,-24.600,-5.600,26.600,-0.969,2.633,-0.023
2019-05-26-01:56:08.419178,0.313,-0.163,10.114,-2.700,-6.400,11.800,-1.062,2.352,-0.273
2019-05-26-01:56:08.532982,0.278,-0.220,10.136,-12.400,-5.800,40.300,-1.070,2.711,-0.141
2019-05-26-01:56:08.642788,0.297,-0.170,10.148,-21.800,-6.900,20.400,-1.328,2.711,-0.102
2019-05-26-01:56:08.752953,0.325,-0.117,10.105,0.200,-5.900,13.600,-1.086,2.820,-0.344
2019-05-26-01:56:08.862822,0.299,-0.144,10.052,-12.200,-3.800,45.500,-1.148,3.039,-0.188
2019-05-26-01:56:08.972715,0.292,-0.196,10.141,-22.300,-7.400,22.100,-1.211,2.625,-0.078
2019-05-26-01:56:09.082519,0.309,-0.165,10.122,-0.500,-6.700,13.800,-0.992,2.883,0.016
2019-05-26-01:56:09.192766,0.325,-0.129,10.088,-15.900,-6.200,40.600,-1.039,2.648,-0.070
2019-05-26-01:56:09.302656,0.311,-0.146,10.107,-19.600,-7.100,17.600,-0.984,2.656,-0.305
2019-05-26-01:56:09.412403,0.294,-0.203,10.148,1.900,-5.700,17.800,-1.047,2.883,-0.180
2019-05-26-01:56:09.522507,0.275,-0.234,10.162,-15.400,-3.800,45.800,-1.523,2.680,-0.273
2019-05-26-01:56:09.632331,0.306,-0.194,10.146,-19.500,-6.700,20.500,-1.164,2.656,-0.164
2019-05-26-01:56:09.742098,0.304,-0.153,10.112,0.600,-5.700,18.900,-0.969,2.883,-0.258
2019-05-26-01:56:09.851864,0.323,-0.112,10.095,1.100,-4.900,25.000,-1.062,2.891,-0.070
2019-05-26-01:56:09.961967,0.304,-0.146,10.136,-19.800,-4.900,45.700,-0.938,2.758,-0.164
2019-05-26-01:56:10.071815,0.275,-0.201,10.146,-16.300,-7.900,13.400,-1.438,2.625,0.148
2019-05-26-01:56:10.182589,0.278,-0.234,10.155,-0.400,-5.400,21.800,-1.047,2.758,-0.148
2019-05-26-01:56:10.298444,0.294,-0.208,10.134,-20.700,-6.100,40.900,-1.336,2.758,0.016
2019-05-26-01:56:10.408285,0.330,-0.144,10.134,-0.200,-6.300,22.900,-1.086,2.852,-0.281
2019-05-26-01:56:10.518109,0.316,-0.124,10.098,-19.700,-5.200,40.500,-1.023,2.461,-0.180
2019-05-26-01:56:10.628101,0.311,-0.148,10.141,-13.500,-7.000,11.400,-0.883,2.773,0.242
2019-05-26-01:56:10.737933,0.278,-0.208,10.129,1.200,-5.600,27.500,-1.086,2.672,-0.094
2019-05-26-01:56:10.847699,0.282,-0.230,10.162,-21.700,-6.100,43.200,-1.117,2.852,-0.117
2019-05-26-01:56:10.957499,0.297,-0.194,10.155,-13.000,-6.400,11.000,-0.938,2.672,-0.141
2019-05-26-01:56:11.067243,0.316,-0.141,10.098,-3.600,-4.800,27.300,-1.023,2.695,-0.117
2019-05-26-01:56:11.177287,0.330,-0.122,10.079,-23.400,-6.100,34.900,-0.750,2.883,-0.234
2019-05-26-01:56:11.287152,0.299,-0.163,10.148,-24.900,-5.500,37.800,-0.859,2.617,0.016
2019-05-26-01:56:11.396787,0.256,-0.223,10.174,-8.400,-8.000,10.000,-1.352,2.938,-0.188
2019-05-26-01:56:11.508405,0.285,-0.227,10.148,-5.200,-6.500,31.700,-1.258,2.938,-0.180
2019-05-26-01:56:11.618304,0.318,-0.189,10.136,-24.800,-6.700,31.600,-1.133,2.719,-0.281
2019-05-26-01:56:11.728076,0.321,-0.124,10.095,-6.300,-7.700,8.100,-1.258,2.633,-0.227
2019-05-26-01:56:11.837855,0.335,-0.115,10.081,-6.100,-3.600,39.500,-0.945,2.781,-0.203
2019-05-26-01:56:11.947660,0.280,-0.158,10.143,-24.700,-6.600,33.600,-0.820,2.648,-0.203
2019-05-26-01:56:12.057426,0.294,-0.225,10.158,-6.800,-7.200,9.900,-1.070,2.797,-0.305
2019-05-26-01:56:12.167268,0.273,-0.220,10.148,-8.700,-6.000,36.600,-1.086,2.680,-0.031
2019-05-26-01:56:12.277132,0.297,-0.201,10.117,-23.800,-6.700,26.800,-1.477,2.523,-0.234
2019-05-26-01:56:12.387156,0.333,-0.117,10.076,-2.800,-7.100,9.600,-0.984,2.719,-0.305
2019-05-26-01:56:12.497035,0.321,-0.139,10.126,-7.200,-4.300,42.100,-0.773,2.742,-0.250
2019-05-26-01:56:12.606846,0.299,-0.177,10.165,-24.600,-6.400,30.200,-0.945,2.562,0.086
2019-05-26-01:56:12.716907,0.318,-0.170,10.155,-5.700,-7.700,8.100,-1.062,2.609,-0.102
2019-05-26-01:56:12.826799,0.340,-0.120,10.091,-9.600,-4.700,37.700,-1.023,2.734,-0.211
2019-05-26-01:56:12.936586,0.333,-0.129,10.098,-23.500,-5.900,24.900,-0.969,2.828,-0.211
2019-05-26-01:56:13.046354,0.292,-0.177,10.136,0.100,-6.700,11.300,-0.766,2.844,0.062
2019-05-26-01:56:13.158203,0.268,-0.239,10.146,-10.200,-4.800,43.400,-1.000,2.562,0.039
2019-05-26-01:56:13.267949,0.301,-0.218,10.158,-23.300,-6.400,28.500,-1.031,2.820,0.078
2019-05-26-01:56:13.377736,0.304,-0.184,10.107,-3.100,-6.400,11.700,-1.086,2.844,-0.023
2019-05-26-01:56:13.487660,0.333,-0.127,10.093,-11.400,-5.100,38.400,-1.266,3.070,0.219
2019-05-26-01:56:13.602880,0.316,-0.177,10.100,-22.600,-7.300,22.900,-0.914,2.797,-0.008
2019-05-26-01:56:13.712934,0.335,-0.127,10.081,-0.500,-6.800,12.900,-1.016,2.898,0.109
2019-05-26-01:56:13.822784,0.325,-0.129,10.100,-10.000,-4.500,44.400,-1.070,2.945,0.062
2019-05-26-01:56:13.932857,0.275,-0.182,10.143,-24.300,-6.300,25.900,-0.852,2.781,-0.250
2019-05-26-01:56:14.042749,0.273,-0.223,10.160,-3.100,-6.900,12.200,-0.648,2.852,-0.102
2019-05-26-01:56:14.152863,0.282,-0.206,10.158,-12.000,-4.300,38.700,-0.805,2.758,-0.078
2019-05-26-01:56:14.262733,0.321,-0.175,10.100,-21.000,-7.700,23.000,-1.188,2.672,-0.180
2019-05-26-01:56:14.372644,0.292,-0.203,10.100,1.900,-5.900,13.500,-1.055,2.789,0.133
2019-05-26-01:56:14.482599,0.282,-0.227,10.155,-13.000,-4.900,45.400,-0.891,2.992,-0.414
2019-05-26-01:56:14.592597,0.297,-0.194,10.150,-22.800,-6.700,22.400,-0.844,2.570,-0.125
2019-05-26-01:56:14.708036,0.311,-0.167,10.114,-1.500,-7.900,13.900,-0.836,2.789,0.016
2019-05-26-01:56:14.817902,0.287,-0.213,10.172,-15.300,-5.800,40.600,-1.062,2.711,-0.180
2019-05-26-01:56:14.927591,0.318,-0.170,10.148,-19.300,-7.300,16.800,-1.117,2.539,-0.078
2019-05-26-01:56:15.037365,0.337,-0.124,10.083,3.000,-5.700,16.400,-0.922,2.750,0.062
2019-05-26-01:56:15.147364,0.325,-0.141,10.131,-16.300,-4.000,44.900,-1.164,2.805,-0.141
2019-05-26-01:56:15.257144,0.299,-0.191,10.143,-20.800,-7.000,18.900,-0.844,2.758,-0.117
2019-05-26-01:56:15.366798,0.273,-0.213,10.174,-0.300,-6.100,18.400,-0.992,2.953,-0.164
2019-05-26-01:56:15.476617,0.287,-0.213,10.148,-19.100,-6.200,39.800,-1.094,2.797,-0.164
2019-05-26-01:56:15.586413,0.313,-0.146,10.122,-16.300,-7.700,12.900,-1.047,2.805,-0.031
2019-05-26-01:56:15.696391,0.287,-0.196,10.126,2.200,-5.200,24.400,-1.047,2.562,-0.078
2019-05-26-01:56:15.806290,0.309,-0.220,10.165,-19.400,-3.700,44.500,-0.453,2.828,0.008
2019-05-26-01:56:15.917963,0.290,-0.191,10.134,-17.300,-9.000,13.300,-1.336,2.633,-0.102
2019-05-26-01:56:16.027748,0.309,-0.146,10.155,-0.800,-6.800,23.700,-1.305,2.977,-0.008
2019-05-26-01:56:16.137519,0.337,-0.139,10.110,-20.900,-6.200,39.100,-0.992,2.594,-0.094
2019-05-26-01:56:16.247429,0.297,-0.141,10.131,-12.300,-7.000,10.800,-0.867,2.625,-0.164
2019-05-26-01:56:16.357480,0.278,-0.201,10.126,1.700,-5.200,25.600,-0.992,2.766,-0.055
2019-05-26-01:56:16.467195,0.282,-0.225,10.158,-21.600,-5.100,43.400,-0.750,2.891,-0.148
2019-05-26-01:56:16.576902,0.290,-0.191,10.143,-14.200,-8.300,12.500,-0.875,2.547,-0.305
2019-05-26-01:56:16.686773,0.313,-0.151,10.114,-0.800,-5.600,25.200,-0.750,2.820,-0.141
2019-05-26-01:56:16.796566,0.349,-0.127,10.105,-20.400,-6.700,37.100,-0.992,2.734,-0.258
2019-05-26-01:56:16.906229,0.333,-0.141,10.131,-24.500,-4.200,41.700,-0.539,2.781,-0.141
2019-05-26-01:56:17.015746,0.280,-0.191,10.141,-10.900,-7.700,8.100,-0.742,2.891,-0.023
2019-05-26-01:56:17.125462,0.282,-0.218,10.141,-22.800,-5.700,43.400,-0.781,2.672,-0.148
2019-05-26-01:56:17.234845,0.297,-0.187,10.146,-11.900,-8.400,9.200,-1.047,2.867,-0.234
2019-05-26-01:56:17.344208,0.292,-0.242,10.158,-2.200,-6.700,30.100,-1.328,2.914,-0.078
2019-05-26-01:56:17.453601,0.294,-0.208,10.138,-23.700,-7.000,36.700,-0.766,2.734,-0.148
2019-05-26-01:56:17.563356,0.313,-0.129,10.081,-6.100,-7.900,8.900,-0.828,2.805,-0.148
2019-05-26-01:56:17.672899,0.321,-0.124,10.088,-24.000,-5.600,34.300,-1.141,2.625,-0.125
2019-05-26-01:56:17.782591,0.306,-0.163,10.129,-7.600,-8.600,6.700,-1.234,2.781,-0.180
2019-05-26-01:56:17.892047,0.318,-0.115,10.064,-2.200,-5.200,34.000,-0.898,2.867,-0.023
2019-05-26-01:56:18.001438,0.304,-0.163,10.119,-23.900,-6.300,38.500,-1.203,2.711,-0.164
2019-05-26-01:56:18.110830,0.287,-0.227,10.143,-8.600,-7.500,8.800,-0.625,2.766,-0.055
2019-05-26-01:56:18.220192,0.301,-0.244,10.155,-5.700,-6.400,32.400,-1.188,2.805,-0.141
2019-05-26-01:56:18.329911,0.299,-0.179,10.146,-9.100,-7.700,7.900,-1.180,2.867,-0.203
2019-05-26-01:56:18.439442,0.316,-0.132,10.091,-5.600,-6.200,29.500,-1.375,2.625,-0.008
2019-05-26-01:56:18.549127,0.301,-0.189,10.148,-24.200,-7.700,33.600,-1.266,2.734,-0.125
2019-05-26-01:56:18.662812,0.323,-0.129,10.067,-3.900,-6.400,29.400,-0.484,2.758,0.125
2019-05-26-01:56:18.772650,0.335,-0.129,10.098,-23.600,-6.500,33.800,-0.828,2.695,-0.297
2019-05-26-01:56:18.882211,0.301,-0.136,10.100,-4.600,-6.500,8.100,-0.742,2.656,-0.180
2019-05-26-01:56:18.991671,0.325,-0.120,10.117,-4.400,-5.100,37.400,-1.141,2.883,-0.188
2019-05-26-01:56:19.101113,0.285,-0.177,10.150,-25.400,-6.600,32.200,-0.844,2.562,-0.031
2019-05-26-01:56:19.210595,0.285,-0.220,10.160,-5.100,-8.400,9.500,-0.648,2.648,-0.055
2019-05-26-01:56:19.320027,0.285,-0.232,10.165,-8.000,-5.400,37.400,-1.008,2.648,-0.258
2019-05-26-01:56:19.429475,0.306,-0.175,10.129,-6.800,-7.500,10.300,-1.047,2.805,-0.281
2019-05-26-01:56:19.539307,0.333,-0.129,10.083,-8.000,-5.400,37.000,-1.312,2.914,-0.234
2019-05-26-01:56:19.648949,0.337,-0.177,10.126,-22.600,-7.600,27.400,-1.164,2.773,0.086
2019-05-26-01:56:19.758405,0.333,-0.105,10.074,-0.300,-6.500,9.700,-1.180,2.648,-0.164
2019-05-26-01:56:19.867841,0.321,-0.134,10.110,-9.400,-3.500,41.200,-0.805,2.758,-0.148
2019-05-26-01:56:19.977615,0.304,-0.175,10.150,-23.700,-6.600,23.700,-1.031,2.531,0.055
2019-05-26-01:56:20.087192,0.275,-0.239,10.153,-2.500,-7.900,10.200,-0.898,2.625,-0.094
2019-05-26-01:56:20.196732,0.304,-0.218,10.148,-23.300,-6.800,25.300,-1.133,2.781,-0.102
2019-05-26-01:56:20.306323,0.297,-0.175,10.107,-3.200,-7.100,11.700,-1.180,2.562,-0.281
2019-05-26-01:56:20.415830,0.342,-0.117,10.067,-14.400,-5.700,39.300,-1.023,2.758,-0.234
2019-05-26-01:56:20.525410,0.316,-0.144,10.112,-21.300,-6.900,17.300,-1.211,2.883,-0.047
2019-05-26-01:56:20.635047,0.325,-0.129,10.107,0.900,-6.500,17.700,-0.883,2.703,0.211
2019-05-26-01:56:20.744911,0.330,-0.136,10.112,-16.900,-5.700,45.900,-0.773,2.664,0.086
2019-05-26-01:56:20.854420,0.256,-0.179,10.177,-19.800,-8.100,18.100,-1.391,2.688,0.031
2019-05-26-01:56:20.964025,0.280,-0.215,10.158,-0.900,-7.100,22.600,-0.430,2.547,-0.148
2019-05-26-01:56:21.073521,0.282,-0.203,10.117,-20.100,-7.600,39.900,-0.938,2.508,-0.008
2019-05-26-01:56:21.183390,0.330,-0.153,10.102,-0.900,-7.400,22.900,-0.875,2.734,-0.055
2019-05-26-01:56:21.292911,0.335,-0.117,10.105,-21.200,-5.900,39.800,-1.664,2.938,-0.023
2019-05-26-01:56:21.402462,0.306,-0.165,10.122,-13.300,-8.400,9.900,-0.719,2.914,-0.250
2019-05-26-01:56:21.514078,0.309,-0.239,10.126,-0.300,-5.900,29.600,-0.602,2.609,-0.227
2019-05-26-01:56:21.623669,0.278,-0.120,10.186,-22.600,-5.700,41.400,-0.805,2.742,-0.117
2019-05-26-01:56:21.733186,0.270,-0.206,10.155,-11.800,-9.200,8.200,-0.945,2.633,-0.203
2019-05-26-01:56:21.842627,0.299,-0.234,10.160,-4.400,-6.500,29.800,-1.234,2.906,-0.180
2019-05-26-01:56:21.952481,0.292,-0.201,10.126,-24.200,-7.400,33.400,-1.289,2.711,-0.367
2019-05-26-01:56:22.062035,0.318,-0.112,10.079,-3.800,-7.100,29.700,-1.445,2.570,-0.125
2019-05-26-01:56:22.171588,0.337,-0.115,10.102,-24.000,-6.600,33.200,-0.594,2.602,0.125
2019-05-26-01:56:22.281052,0.285,-0.182,10.131,-4.900,-6.800,9.200,-1.094,2.672,-0.180
2019-05-26-01:56:22.390811,0.287,-0.234,10.167,-3.500,-5.600,38.500,-0.781,2.758,-0.125
2019-05-26-01:56:22.500510,0.299,-0.215,10.160,-24.800,-5.900,33.400,-0.781,2.734,-0.117
2019-05-26-01:56:22.610028,0.282,-0.239,10.141,-4.400,-8.300,9.100,-1.164,2.883,0.109
2019-05-26-01:56:22.719550,0.299,-0.220,10.129,-10.200,-6.000,36.800,-1.039,2.797,-0.078
2019-05-26-01:56:22.829079,0.318,-0.163,10.112,-22.000,-8.100,21.900,-1.156,2.719,-0.141
2019-05-26-01:56:22.938593,0.323,-0.136,10.079,0.800,-7.200,12.700,-1.086,2.609,-0.055
2019-05-26-01:56:23.048301,0.321,-0.139,10.110,-13.800,-5.000,46.200,-0.781,2.844,0.031
2019-05-26-01:56:23.158116,0.282,-0.203,10.153,-22.000,-7.300,22.300,-0.586,2.594,-0.141
2019-05-26-01:56:23.267757,0.280,-0.237,10.143,-0.600,-6.600,16.000,-1.305,2.656,-0.305
2019-05-26-01:56:23.377274,0.285,-0.218,10.150,-18.200,-7.600,38.300,-1.141,2.586,-0.461
2019-05-26-01:56:23.486927,0.311,-0.163,10.114,-16.700,-8.100,14.300,-1.266,2.656,-0.328
2019-05-26-01:56:23.597057,0.337,-0.117,10.093,-17.600,-7.000,38.800,-0.727,3.000,-0.102
2019-05-26-01:56:23.710363,0.306,-0.151,10.114,-17.000,-8.200,12.900,-1.180,2.719,-0.141
2019-05-26-01:56:23.819890,0.349,-0.134,10.081,0.400,-6.000,22.600,-1.125,2.555,0.031
2019-05-26-01:56:23.929430,0.318,-0.141,10.100,-20.700,-4.800,45.000,-0.898,2.672,-0.203
2019-05-26-01:56:24.039128,0.275,-0.196,10.143,-14.900,-8.300,12.400,-0.906,2.734,0.039
2019-05-26-01:56:24.148793,0.287,-0.218,10.134,-2.100,-5.700,25.700,-0.766,2.797,-0.211
2019-05-26-01:56:24.258314,0.292,-0.199,10.119,-22.900,-5.600,35.700,-1.258,2.711,-0.023
2019-05-26-01:56:24.368209,0.333,-0.156,10.095,-9.600,-7.500,8.700,-1.477,2.711,0.188
2019-05-26-01:56:24.478006,0.333,-0.103,10.064,-0.800,-5.300,33.100,-0.938,2.734,-0.148
2019-05-26-01:56:24.587774,0.287,-0.175,10.131,-24.400,-5.400,40.400,-0.922,2.812,0.062
2019-05-26-01:56:24.697474,0.282,-0.218,10.155,-8.700,-8.100,9.300,-0.773,2.586,-0.047
2019-05-26-01:56:24.807411,0.297,-0.220,10.167,-25.000,-5.700,38.000,-1.086,2.719,-0.023
2019-05-26-01:56:24.917037,0.299,-0.194,10.134,-8.200,-8.200,9.600,-1.289,2.797,0.039
2019-05-26-01:56:25.026609,0.333,-0.136,10.095,-5.900,-6.100,34.100,-1.289,2.992,-0.320
2019-05-26-01:56:25.136238,0.318,-0.129,10.102,-24.600,-7.700,29.900,-1.375,2.648,-0.078
2019-05-26-01:56:25.245838,0.304,-0.182,10.122,-2.000,-6.500,8.800,-1.047,2.742,-0.094
2019-05-26-01:56:25.355313,0.273,-0.234,10.134,-7.800,-3.400,42.000,-0.727,2.969,-0.273
2019-05-26-01:56:25.464868,0.282,-0.218,10.155,-23.900,-5.000,28.800,-1.109,2.508,-0.211
2019-05-26-01:56:25.574818,0.306,-0.167,10.117,-3.100,-7.800,13.300,-1.164,2.734,-0.117
2019-05-26-01:56:25.684491,0.340,-0.139,10.081,-12.900,-5.500,38.300,-1.133,2.867,-0.203
2019-05-26-01:56:25.794174,0.321,-0.122,10.107,-22.200,-7.600,17.900,-1.352,2.461,-0.164
2019-05-26-01:56:25.903690,0.278,-0.175,10.093,2.000,-5.600,14.400,-1.188,2.820,-0.141
2019-05-26-01:56:26.013609,0.330,-0.132,10.138,-15.300,-5.100,45.300,-1.070,2.570,0.008
2019-05-26-01:56:26.123259,0.292,-0.191,10.160,-22.500,-7.900,21.400,-1.055,2.773,0.086
2019-05-26-01:56:26.232815,0.299,-0.218,10.155,-0.600,-6.500,17.100,-1.305,2.891,-0.188
2019-05-26-01:56:26.342401,0.299,-0.201,10.138,-17.500,-5.900,40.500,-0.828,2.781,-0.055
2019-05-26-01:56:26.452007,0.316,-0.156,10.107,-17.200,-8.000,14.000,-1.062,2.633,-0.211
2019-05-26-01:56:26.561640,0.347,-0.132,10.105,1.500,-5.500,25.100,-0.844,2.695,-0.117
2019-05-26-01:56:26.671309,0.297,-0.144,10.107,-20.300,-5.400,45.900,-0.828,2.539,0.078
2019-05-26-01:56:26.781246,0.282,-0.203,10.136,-17.200,-7.400,14.800,-0.984,2.695,-0.180
2019-05-26-01:56:26.890825,0.278,-0.215,10.174,-1.800,-6.500,26.100,-0.945,2.797,-0.031
2019-05-26-01:56:27.000449,0.275,-0.211,10.155,-21.900,-6.600,37.100,-1.164,2.891,-0.320
2019-05-26-01:56:27.110040,0.325,-0.139,10.122,-1.000,-17.900,32.600,-0.656,2.570,-0.047
2019-05-26-01:56:27.219988,0.335,-0.124,10.102,4.900,-15.900,48.400,-0.875,2.711,0.102
2019-05-26-01:56:27.329552,0.330,-0.165,10.129,-19.400,-11.000,65.200,-1.094,2.648,-0.078
2019-05-26-01:56:27.439140,0.275,-0.203,10.143,-4.200,-16.800,29.200,-1.039,2.711,-0.102
2019-05-26-01:56:27.548872,0.287,-0.208,10.162,-1.400,-12.500,53.400,-1.211,2.695,-0.406
2019-05-26-01:56:27.658486,0.290,-0.199,10.124,-19.300,-13.500,48.600,-1.023,2.758,-0.094
2019-05-26-01:56:27.768238,0.325,-0.117,10.095,10.600,-18.800,38.000,-0.727,2.781,-0.227
2019-05-26-01:56:27.877900,0.318,-0.136,10.107,-4.300,-10.500,63.300,-1.211,2.773,0.031
2019-05-26-01:56:27.988563,0.294,-0.179,10.143,-14.200,-17.000,54.400,-0.766,2.523,-0.281
2019-05-26-01:56:28.098520,0.273,-0.220,10.112,5.700,-18.600,35.600,-0.820,2.648,-0.125
2019-05-26-01:56:28.208206,0.309,-0.206,10.134,-4.700,-16.200,65.600,-1.508,2.664,0.188
2019-05-26-01:56:28.317746,0.309,-0.156,10.100,-9.900,-18.400,45.600,-1.086,2.719,-0.273
2019-05-26-01:56:28.427639,0.352,-0.129,10.102,13.800,-19.800,43.000,-1.336,2.805,0.008
2019-05-26-01:56:28.537368,0.311,-0.156,10.126,-5.200,-16.400,77.000,-0.750,2.648,-0.047
2019-05-26-01:56:28.647105,0.285,-0.189,10.112,-4.700,-22.000,44.900,-0.648,2.547,-0.188
2019-05-26-01:56:28.760769,0.261,-0.227,10.141,-4.400,-19.900,75.500,-0.633,2.953,-0.180
2019-05-26-01:56:28.870320,0.278,-0.203,10.160,-4.100,-23.900,37.300,-0.914,2.586,-0.234
2019-05-26-01:56:28.980033,0.313,-0.153,10.081,8.700,-16.400,51.900,-0.898,2.609,-0.344
2019-05-26-01:56:29.089594,0.335,-0.112,10.091,-8.000,-19.900,69.800,-0.867,2.695,-0.359
2019-05-26-01:56:29.199518,0.304,-0.163,10.124,-2.100,-21.500,33.800,-0.898,2.648,-0.273
2019-05-26-01:56:29.309146,0.287,-0.201,10.146,9.700,-14.500,59.400,-1.008,2.656,-0.164
2019-05-26-01:56:29.418774,0.275,-0.215,10.150,-18.500,-13.500,65.600,-0.531,2.727,0.016
2019-05-26-01:56:29.535079,0.301,-0.201,10.143,1.900,-23.000,35.700,-0.938,2.633,-0.203
2019-05-26-01:56:29.645213,0.287,-0.223,10.160,-13.200,-16.800,70.300,-0.898,2.883,-0.180
2019-05-26-01:56:29.754837,0.313,-0.182,10.114,-1.700,-18.900,36.200,-1.375,2.461,-0.008
2019-05-26-01:56:29.864461,0.323,-0.146,10.117,3.800,-16.200,55.200,-0.672,2.586,0.008
2019-05-26-01:56:29.976111,0.311,-0.115,10.083,-17.300,-16.300,57.100,-1.008,2.797,-0.258
2019-05-26-01:56:30.085749,0.304,-0.175,10.138,7.800,-18.600,37.900,-1.234,2.688,0.062
2019-05-26-01:56:30.195392,0.282,-0.213,10.165,4.000,-18.900,65.600,-1.125,2.750,0.039
2019-05-26-01:56:30.304992,0.290,-0.215,10.134,-13.800,-18.100,59.300,-1.336,2.680,-0.023
2019-05-26-01:56:30.414937,0.313,-0.179,10.093,4.700,-20.200,34.300,-1.289,2.820,-0.008
2019-05-26-01:56:30.524669,0.330,-0.136,10.098,-5.400,-15.500,61.400,-0.898,2.711,-0.180
2019-05-26-01:56:30.634392,0.325,-0.144,10.100,-11.500,-19.200,49.500,-0.891,2.828,-0.500
2019-05-26-01:56:30.747083,0.333,-0.132,10.086,11.800,-20.100,38.900,-0.969,2.820,-0.078
2019-05-26-01:56:30.857033,0.301,-0.136,10.110,-7.300,-14.600,69.300,-1.016,2.500,0.062
2019-05-26-01:56:30.966735,0.285,-0.191,10.138,-11.800,-16.700,46.700,-1.336,2.773,0.109
2019-05-26-01:56:31.076411,0.287,-0.225,10.160,11.300,-20.600,45.900,-1.117,2.633,-0.227
2019-05-26-01:56:31.186140,0.280,-0.189,10.143,-8.500,-17.900,70.500,-1.172,2.812,0.031
2019-05-26-01:56:31.295735,0.323,-0.139,10.110,-0.700,-19.000,46.200,-1.023,2.797,-0.180
2019-05-26-01:56:31.405242,0.342,-0.124,10.083,15.600,-17.000,61.700,-0.805,2.609,-0.023
2019-05-26-01:56:31.514882,0.318,-0.167,10.117,-6.000,-24.800,69.000,-0.805,2.766,-0.102
2019-05-26-01:56:31.624830,0.275,-0.208,10.122,-9.900,-16.200,28.800,-0.938,2.562,-0.102
2019-05-26-01:56:31.734539,0.270,-0.218,10.167,14.600,-22.100,64.600,-1.227,2.805,-0.141
2019-05-26-01:56:31.844198,0.297,-0.184,10.126,-19.400,-10.500,65.100,-1.234,2.938,-0.117
2019-05-26-01:56:31.954243,0.333,-0.129,10.086,-3.600,-11.200,30.800,-1.180,2.609,-0.258
2019-05-26-01:56:32.063903,0.311,-0.129,10.098,0.200,-15.900,58.300,-1.117,2.508,-0.008
2019-05-26-01:56:32.173568,0.285,-0.172,10.153,-11.800,-17.600,64.800,-0.820,2.766,-0.383
2019-05-26-01:56:32.283149,0.285,-0.220,10.150,9.700,-26.100,33.400,-0.992,2.609,-0.117
2019-05-26-01:56:32.392691,0.325,-0.215,10.153,-7.000,-10.200,66.300,-1.070,2.906,-0.164
2019-05-26-01:56:32.502508,0.292,-0.151,10.088,-11.900,-22.000,44.000,-0.938,2.719,-0.164
2019-05-26-01:56:32.612144,0.285,-0.182,10.107,14.500,-21.600,41.300,-1.164,2.562,-0.070
2019-05-26-01:56:32.721736,0.299,-0.230,10.167,-1.700,-14.500,78.400,-1.125,2.625,0.039
2019-05-26-01:56:32.831719,0.280,-0.211,10.141,-21.300,-12.000,43.100,-1.086,2.820,-0.102
2019-05-26-01:56:32.941397,0.309,-0.156,10.143,15.100,-25.100,40.600,-1.180,2.734,-0.281
2019-05-26-01:56:33.051011,0.321,-0.122,10.071,-12.800,-17.200,58.500,-1.328,2.852,-0.055
2019-05-26-01:56:33.160895,0.306,-0.158,10.102,-3.900,-20.000,44.800,-0.852,2.906,-0.234
2019-05-26-01:56:33.270604,0.292,-0.213,10.124,9.000,-11.400,54.500,-1.109,2.453,-0.008
2019-05-26-01:56:33.380258,0.268,-0.234,10.143,-15.700,-10.100,70.900,-1.008,2.594,-0.047
2019-05-26-01:56:33.489949,0.266,-0.213,10.146,-9.700,-16.100,35.800,-1.180,2.672,-0.031
2019-05-26-01:56:33.599641,0.309,-0.139,10.100,2.400,-12.900,46.200,-1.023,2.711,-0.297
2019-05-26-01:56:33.709314,0.290,-0.134,10.083,-8.100,-25.000,60.400,-0.766,2.820,0.055
2019-05-26-01:56:33.823141,0.333,-0.139,10.086,-4.900,-13.000,29.900,-0.664,3.000,-0.273
2019-05-26-01:56:33.932773,0.311,-0.134,10.083,13.100,-23.800,59.100,-1.047,2.758,-0.047
2019-05-26-01:56:34.045830,0.309,-0.179,10.110,-11.600,-17.000,70.200,-0.602,2.805,-0.227
2019-05-26-01:56:34.155774,0.290,-0.208,10.160,-8.100,-7.900,8.600,-0.750,2.711,0.031
2019-05-26-01:56:34.265494,0.280,-0.215,10.143,-8.900,-4.700,34.700,-1.328,2.797,-0.203
2019-05-26-01:56:34.375435,0.316,-0.187,10.122,-24.600,-7.500,26.600,-0.727,2.797,0.031
2019-05-26-01:56:34.485317,0.325,-0.132,10.081,-3.700,-5.800,9.700,-0.898,2.414,-0.070
2019-05-26-01:56:34.595214,0.333,-0.127,10.117,-10.000,-2.600,43.100,-0.852,2.656,-0.102
2019-05-26-01:56:34.704969,0.280,-0.177,10.141,-25.700,-5.800,27.500,-0.578,2.586,-0.297
2019-05-26-01:56:34.814564,0.270,-0.227,10.160,-3.600,-6.400,11.300,-1.016,2.719,-0.117
2019-05-26-01:56:34.924336,0.282,-0.218,10.143,-12.600,-4.300,38.900,-1.258,2.797,-0.023
2019-05-26-01:56:35.034029,0.301,-0.187,10.086,-22.700,-6.000,21.300,-1.188,2.641,0.102
2019-05-26-01:56:35.149433,0.347,-0.136,10.091,-0.600,-5.600,12.800,-1.336,2.547,-0.188
2019-05-26-01:56:35.259142,0.318,-0.134,10.095,-23.900,-6.400,21.700,-1.578,2.680,-0.180
2019-05-26-01:56:35.368755,0.285,-0.194,10.138,-1.200,-5.600,11.700,-1.023,2.547,-0.164
2019-05-26-01:56:35.478394,0.280,-0.227,10.153,-12.300,-3.600,42.400,-0.773,2.680,-0.078
2019-05-26-01:56:35.588308,0.278,-0.208,10.134,-24.100,-8.100,23.600,-0.820,2.695,-0.203
2019-05-26-01:56:35.698093,0.321,-0.163,10.129,-2.300,-7.500,12.400,-0.797,2.797,-0.203
2019-05-26-01:56:35.807752,0.333,-0.122,10.093,-14.900,-5.600,40.600,-0.820,2.781,-0.297
2019-05-26-01:56:35.917311,0.318,-0.141,10.114,-19.900,-6.800,16.800,-0.984,2.719,-0.258
2019-05-26-01:56:36.026925,0.299,-0.191,10.136,0.700,-6.700,15.300,-0.898,2.508,-0.234
2019-05-26-01:56:36.136644,0.292,-0.227,10.153,-13.900,-5.000,45.700,-0.891,2.805,-0.078
2019-05-26-01:56:36.246228,0.297,-0.203,10.143,-20.900,-6.100,22.400,-1.008,2.656,-0.094
2019-05-26-01:56:36.358876,0.316,-0.156,10.102,-1.500,-6.100,16.700,-1.039,2.695,-0.148
2019-05-26-01:56:36.468577,0.323,-0.139,10.095,-18.300,-5.700,39.600,-1.133,2.633,-0.320
2019-05-26-01:56:36.578360,0.328,-0.141,10.129,-18.400,-6.900,14.100,-1.086,2.930,-0.047
2019-05-26-01:56:36.687991,0.287,-0.220,10.131,0.600,-5.400,20.900,-1.023,2.797,-0.070
2019-05-26-01:56:36.797916,0.282,-0.227,10.148,-18.000,-4.200,43.900,-1.281,2.672,-0.102
2019-05-26-01:56:36.907564,0.287,-0.203,10.122,-17.600,-7.800,14.100,-1.227,2.867,-0.117
2019-05-26-01:56:37.017203,0.323,-0.153,10.098,-1.300,-6.200,22.300,-0.781,2.758,-0.055
2019-05-26-01:56:37.126874,0.323,-0.127,10.081,-20.600,-4.200,40.300,-1.180,2.648,-0.164
2019-05-26-01:56:37.236593,0.304,-0.146,10.122,-13.800,-7.800,11.500,-0.828,2.672,-0.023
2019-05-26-01:56:37.346134,0.294,-0.191,10.158,1.600,-5.400,25.100,-0.953,2.773,0.016
2019-05-26-01:56:37.455755,0.261,-0.239,10.148,-20.700,-4.300,44.800,-1.016,2.430,0.031
2019-05-26-01:56:37.565684,0.301,-0.184,10.146,-14.800,-7.300,11.900,-1.156,2.609,-0.203
2019-05-26-01:56:37.675414,0.318,-0.146,10.105,-0.800,-5.100,23.100,-0.961,2.766,-0.391
2019-05-26-01:56:37.785029,0.323,-0.136,10.093,-21.600,-6.700,36.800,-1.008,2.906,-0.047
2019-05-26-01:56:37.894845,0.330,-0.163,10.122,-24.400,-5.300,40.300,-1.023,2.656,-0.258
2019-05-26-01:56:38.004772,0.297,-0.218,10.172,-10.300,-7.800,8.600,-0.945,2.695,-0.227
2019-05-26-01:56:38.114457,0.273,-0.234,10.150,-4.800,-5.500,30.200,-1.352,2.742,-0.180
2019-05-26-01:56:38.224102,0.318,-0.199,10.136,-24.100,-6.700,31.800,-0.961,2.828,-0.141
2019-05-26-01:56:38.335696,0.325,-0.124,10.086,-2.800,-5.300,28.200,-1.008,2.891,-0.008
2019-05-26-01:56:38.445412,0.309,-0.122,10.095,-24.700,-5.500,35.000,-0.844,2.820,-0.305
2019-05-26-01:56:38.555099,0.301,-0.179,10.141,-23.900,-5.200,32.400,-1.234,2.648,-0.141
2019-05-26-01:56:38.664796,0.292,-0.237,10.143,-6.200,-7.200,8.600,-1.023,2.672,0.109
2019-05-26-01:56:38.774721,0.299,-0.230,10.165,-7.600,-4.600,36.000,-0.914,2.766,-0.078
2019-05-26-01:56:38.888283,0.292,-0.175,10.119,-7.800,-6.800,9.100,-0.797,2.375,-0.094
2019-05-26-01:56:38.997950,0.342,-0.136,10.095,-7.800,-5.000,34.100,-1.234,2.461,-0.164
2019-05-26-01:56:39.107555,0.321,-0.122,10.086,-22.700,-6.700,26.800,-1.070,2.586,0.039
2019-05-26-01:56:39.217468,0.290,-0.177,10.158,-2.000,-6.900,9.100,-1.141,2.586,-0.117
2019-05-26-01:56:39.327193,0.290,-0.218,10.165,-7.400,-3.600,41.400,-0.727,2.594,-0.250
2019-05-26-01:56:39.436766,0.292,-0.213,10.169,-25.800,-5.800,31.100,-0.602,2.734,-0.047
2019-05-26-01:56:39.546698,0.311,-0.158,10.105,-4.700,-6.900,10.200,-0.844,2.797,-0.031
2019-05-26-01:56:39.656727,0.321,-0.124,10.091,-9.700,-5.200,38.600,-1.258,2.742,-0.367
2019-05-26-01:56:39.766381,0.304,-0.132,10.093,-24.300,-7.100,25.200,-1.180,2.758,-0.008
2019-05-26-01:56:39.876107,0.290,-0.189,10.150,-0.700,-6.600,10.400,-1.180,2.562,-0.070
2019-05-26-01:56:39.986063,0.266,-0.237,10.160,-9.100,-4.000,41.900,-0.695,2.508,-0.203
2019-05-26-01:56:40.095696,0.297,-0.220,10.150,-11.500,-6.000,40.200,-1.227,2.820,-0.180
2019-05-26-01:56:40.205396,0.313,-0.167,10.102,-21.600,-7.200,20.700,-1.039,2.672,-0.273
2019-05-26-01:56:40.314935,0.323,-0.136,10.088,1.300,-6.400,13.400,-0.805,2.648,-0.008
2019-05-26-01:56:40.424827,0.306,-0.141,10.091,-11.300,-3.400,46.400,-0.875,2.414,0.039
2019-05-26-01:56:40.534526,0.285,-0.177,10.126,-21.200,-7.700,24.100,-0.961,2.883,-0.227
2019-05-26-01:56:40.644277,0.282,-0.223,10.160,-0.800,-7.100,14.300,-0.992,2.656,0.008
2019-05-26-01:56:40.753935,0.273,-0.225,10.131,-15.700,-5.400,40.400,-0.781,2.547,-0.141
2019-05-26-01:56:40.863542,0.306,-0.158,10.129,-17.600,-7.800,16.500,-1.047,2.719,-0.258
2019-05-26-01:56:40.973306,0.325,-0.129,10.110,2.100,-6.400,17.600,-1.117,2.594,-0.148
2019-05-26-01:56:41.082914,0.325,-0.144,10.091,-15.900,-4.200,45.400,-1.117,2.656,-0.094
2019-05-26-01:56:41.192859,0.287,-0.189,10.129,-20.300,-8.100,18.500,-0.703,2.672,0.016
2019-05-26-01:56:41.302560,0.294,-0.234,10.155,-0.800,-6.600,21.000,-1.133,2.586,-0.250
2019-05-26-01:56:41.412146,0.290,-0.211,10.129,-17.600,-5.900,40.400,-1.109,2.672,-0.211
2019-05-26-01:56:41.521842,0.309,-0.141,10.100,-15.400,-7.200,11.100,-1.289,2.820,-0.180
2019-05-26-01:56:41.631769,0.318,-0.132,10.091,1.800,-4.600,25.700,-0.680,2.820,-0.047
2019-05-26-01:56:41.741495,0.325,-0.148,10.114,-20.700,-4.900,44.700,-1.094,2.570,-0.227
2019-05-26-01:56:41.851074,0.297,-0.187,10.143,-16.100,-7.000,13.900,-1.141,2.680,-0.227
2019-05-26-01:56:41.960761,0.306,-0.141,10.110,-1.300,-5.500,24.300,-1.328,2.625,-0.141
2019-05-26-01:56:42.070359,0.323,-0.112,10.110,-21.700,-6.600,37.200,-1.172,2.711,0.055
2019-05-26-01:56:42.180039,0.304,-0.146,10.119,-12.700,-8.100,10.400,-1.141,2.680,-0.117
2019-05-26-01:56:42.289638,0.311,-0.215,10.179,1.100,-6.000,29.800,-0.961,2.805,-0.141
2019-05-26-01:56:42.399512,0.278,-0.237,10.150,-22.300,-4.000,40.900,-0.727,2.680,-0.227
2019-05-26-01:56:42.509288,0.304,-0.189,10.143,-13.500,-8.200,10.500,-1.445,2.992,-0.094
2019-05-26-01:56:42.618986,0.316,-0.136,10.062,-4.100,-5.900,29.100,-1.070,2.883,-0.203
2019-05-26-01:56:42.728621,0.323,-0.139,10.079,-23.800,-6.000,34.300,-0.555,2.828,-0.047
2019-05-26-01:56:42.838550,0.294,-0.158,10.150,-7.000,-7.200,7.100,-1.109,2.562,-0.164
2019-05-26-01:56:42.948163,0.290,-0.232,10.148,-7.000,-6.300,9.800,-0.875,2.648,0.055
2019-05-26-01:56:43.057773,0.294,-0.208,10.150,-6.000,-4.700,34.500,-0.758,2.789,0.039
2019-05-26-01:56:43.167431,0.309,-0.187,10.148,-23.900,-7.100,29.400,-0.898,2.477,-0.094
2019-05-26-01:56:43.277134,0.311,-0.134,10.076,-3.100,-6.900,8.800,-0.945,2.586,-0.430
2019-05-26-01:56:43.386716,0.330,-0.117,10.112,-6.100,-4.500,40.800,-1.109,2.711,-0.125
2019-05-26-01:56:43.496684,0.273,-0.177,10.134,-24.000,-6.700,30.600,-0.867,2.781,-0.031
2019-05-26-01:56:43.606905,0.285,-0.234,10.119,-3.800,-7.500,10.100,-1.359,3.000,-0.117
2019-05-26-01:56:43.716788,0.304,-0.211,10.124,-10.900,-5.700,37.600,-1.086,2.734,-0.117
2019-05-26-01:56:43.826556,0.309,-0.160,10.129,-22.200,-6.600,20.600,-0.648,2.586,-0.102
2019-05-26-01:56:43.940248,0.321,-0.144,10.110,-10.500,-5.500,37.700,-0.891,2.906,-0.125
2019-05-26-01:56:44.050220,0.306,-0.139,10.095,-22.400,-7.200,22.300,-1.117,2.797,0.125
2019-05-26-01:56:44.159946,0.290,-0.184,10.150,0.400,-5.000,12.600,-0.828,2.609,-0.055
2019-05-26-01:56:44.269544,0.301,-0.230,10.136,-1.900,-6.500,14.300,-1.047,2.641,0.039
2019-05-26-01:56:44.379157,0.282,-0.211,10.131,-16.600,-5.200,39.200,-1.312,2.539,-0.281
2019-05-26-01:56:44.489067,0.323,-0.148,10.093,-18.200,-7.200,16.100,-1.039,2.969,-0.117
2019-05-26-01:56:44.598897,0.323,-0.117,10.102,2.100,-3.900,22.500,-0.969,2.867,-0.055
2019-05-26-01:56:44.708581,0.321,-0.146,10.110,-18.800,-4.000,44.900,-1.266,2.594,-0.141
2019-05-26-01:56:44.818619,0.290,-0.194,10.141,-16.600,-7.900,13.500,-1.180,2.625,-0.141
2019-05-26-01:56:44.928302,0.285,-0.234,10.148,-1.000,-5.900,22.200,-0.656,2.773,0.125
2019-05-26-01:56:45.037946,0.294,-0.206,10.129,-19.200,-5.300,40.000,-1.164,2.766,-0.281
2019-05-26-01:56:45.147531,0.309,-0.144,10.098,-13.400,-6.400,10.200,-1.062,2.758,-0.148
2019-05-26-01:56:45.257466,0.342,-0.115,10.079,0.700,-4.500,29.900,-0.875,2.398,-0.070
2019-05-26-01:56:45.367183,0.306,-0.160,10.105,-21.900,-4.900,41.600,-0.805,2.586,-0.164
2019-05-26-01:56:45.476801,0.280,-0.220,10.131,-10.400,-7.100,11.200,-0.727,2.766,-0.031
2019-05-26-01:56:45.586506,0.275,-0.227,10.146,-3.400,-5.300,30.200,-1.406,2.875,0.039
2019-05-26-01:56:45.696232,0.309,-0.196,10.119,-23.200,-5.600,34.400,-1.016,2.695,-0.281
2019-05-26-01:56:45.805799,0.313,-0.141,10.093,-6.500,-7.900,7.800,-1.258,2.789,0.062
2019-05-26-01:56:45.915460,0.290,-0.225,10.165,-2.800,-4.500,36.200,-0.805,2.711,-0.094
2019-05-26-01:56:46.025443,0.304,-0.230,10.165,-24.200,-5.900,36.500,-1.359,2.797,-0.102
2019-05-26-01:56:46.135058,0.304,-0.177,10.131,-7.100,-6.800,11.400,-1.156,2.742,-0.008
2019-05-26-01:56:46.244556,0.330,-0.144,10.033,-6.100,-5.800,34.100,-1.234,2.539,-0.250
2019-05-26-01:56:46.354041,0.328,-0.136,10.088,-23.800,-6.100,28.400,-1.555,2.852,-0.031
2019-05-26-01:56:46.463929,0.280,-0.182,10.162,-3.400,-7.400,9.400,-1.383,2.500,-0.305
2019-05-26-01:56:46.573648,0.278,-0.230,10.148,-6.400,-3.800,40.100,-0.703,2.883,-0.023
2019-05-26-01:56:46.683387,0.294,-0.227,10.136,-24.200,-6.400,31.500,-0.961,2.625,-0.070
2019-05-26-01:56:46.794988,0.316,-0.156,10.122,-3.400,-7.500,9.800,-0.992,2.758,0.031
2019-05-26-01:56:46.904636,0.311,-0.122,10.067,-9.900,-4.700,38.000,-0.602,2.828,-0.141
2019-05-26-01:56:47.014454,0.306,-0.139,10.095,-22.600,-6.200,22.800,-1.070,2.742,-0.117
2019-05-26-01:56:47.124150,0.280,-0.182,10.153,0.900,-5.800,13.300,-1.156,2.766,-0.070
2019-05-26-01:56:47.234218,0.299,-0.256,10.165,-13.600,-4.000,45.900,-1.070,2.852,-0.008
2019-05-26-01:56:47.343759,0.285,-0.215,10.122,-22.200,-5.700,21.100,-0.914,2.711,-0.180
2019-05-26-01:56:47.453338,0.313,-0.160,10.098,-18.000,-6.600,14.300,-1.156,2.844,-0.117
2019-05-26-01:56:47.563027,0.335,-0.127,10.093,2.500,-5.000,24.500,-0.898,2.828,-0.211
2019-05-26-01:56:47.672967,0.345,-0.144,10.112,-18.700,-4.000,46.400,-0.664,2.672,0.062
2019-05-26-01:56:47.782682,0.294,-0.199,10.150,-16.000,-7.400,11.500,-0.586,2.641,0.148
2019-05-26-01:56:47.892304,0.275,-0.230,10.141,-0.300,-6.100,23.100,-1.469,2.742,-0.117
2019-05-26-01:56:48.001868,0.278,-0.199,10.153,-21.600,-5.400,39.600,-1.570,2.930,-0.008
2019-05-26-01:56:48.111397,0.311,-0.153,10.105,-11.700,-7.000,10.100,-0.922,2.914,-0.234
2019-05-26-01:56:48.221275,0.311,-0.122,10.086,-0.400,-4.200,30.500,-0.672,2.977,-0.047
2019-05-26-01:56:48.330883,0.299,-0.156,10.112,-23.100,-4.100,41.500,-1.047,2.734,-0.148
2019-05-26-01:56:48.440892,0.287,-0.220,10.153,-11.700,-7.600,9.500,-0.969,2.508,-0.258
2019-05-26-01:56:48.550705,0.270,-0.234,10.150,-3.700,-5.800,29.600,-0.875,2.508,-0.125
2019-05-26-01:56:48.660579,0.282,-0.191,10.138,-24.000,-6.200,33.300,-0.773,2.633,-0.234
2019-05-26-01:56:48.770206,0.306,-0.120,10.105,-7.500,-7.400,9.100,-1.523,2.766,-0.211
2019-05-26-01:56:48.880103,0.321,-0.117,10.071,-3.900,-5.700,36.100,-1.125,3.016,0.188
2019-05-26-01:56:48.993939,0.306,-0.177,10.134,-24.900,-5.400,34.800,-0.797,2.539,-0.234
2019-05-26-01:56:49.103525,0.280,-0.225,10.141,-6.400,-7.500,10.300,-1.133,2.695,-0.273
2019-05-26-01:56:49.214065,0.278,-0.237,10.131,-8.100,-5.400,36.600,-1.109,2.633,0.008
2019-05-26-01:56:49.324019,0.287,-0.165,10.143,-23.500,-6.600,26.800,-0.898,2.867,-0.234
2019-05-26-01:56:49.433789,0.352,-0.129,10.079,-1.000,-5.700,10.700,-1.430,2.891,-0.359
2019-05-26-01:56:49.543737,0.316,-0.122,10.110,-9.700,-4.100,44.000,-1.336,2.547,-0.344
2019-05-26-01:56:49.653664,0.297,-0.177,10.126,-23.500,-7.100,26.500,-0.766,2.594,-0.227
2019-05-26-01:56:49.763320,0.278,-0.232,10.146,-0.900,-6.700,13.000,-0.906,2.625,0.031
2019-05-26-01:56:49.872909,0.287,-0.215,10.158,-14.900,-4.200,42.400,-1.117,2.680,-0.125
2019-05-26-01:56:49.989167,0.294,-0.153,10.129,0.100,-7.000,12.700,-1.227,2.625,-0.297
2019-05-26-01:56:50.098860,0.337,-0.129,10.093,-15.800,-5.400,41.000,-0.656,2.648,-0.188
2019-05-26-01:56:50.208563,0.323,-0.139,10.122,-18.200,-6.600,16.500,-1.062,2.852,-0.125
2019-05-26-01:56:50.318203,0.275,-0.225,10.148,2.200,-5.200,20.100,-0.719,2.852,-0.180
2019-05-26-01:56:50.427871,0.275,-0.232,10.134,-18.200,-4.900,45.900,-1.039,2.414,-0.250
2019-05-26-01:56:50.537574,0.287,-0.196,10.134,-20.900,-5.900,40.400,-0.695,2.734,-0.141
2019-05-26-01:56:50.647440,0.316,-0.153,10.098,-11.300,-7.200,9.000,-1.070,2.508,-0.078
2019-05-26-01:56:50.757161,0.321,-0.120,10.095,1.200,-3.900,29.400,-0.992,2.539,-0.164
2019-05-26-01:56:50.867196,0.309,-0.156,10.126,-22.800,-3.900,40.600,-1.008,2.781,-0.328
2019-05-26-01:56:50.977068,0.273,-0.218,10.143,-10.600,-7.900,9.300,-1.133,2.758,-0.078
2019-05-26-01:56:51.086531,0.297,-0.234,10.155,-3.900,-4.900,30.000,-0.922,2.719,-0.102
2019-05-26-01:56:51.196314,0.287,-0.201,10.134,-10.700,-8.000,10.300,-1.109,2.500,-0.117
2019-05-26-01:56:51.305883,0.323,-0.146,10.091,-2.700,-6.000,30.100,-1.273,2.578,0.086
2019-05-26-01:56:51.415352,0.321,-0.139,10.081,-23.200,-6.900,33.900,-1.188,2.594,-0.328
2019-05-26-01:56:51.524938,0.285,-0.175,10.169,-4.800,-6.900,7.000,-1.281,2.438,-0.117
2019-05-26-01:56:51.634473,0.330,-0.141,10.088,-4.000,-3.200,36.000,-0.906,2.703,0.125
2019-05-26-01:56:51.744109,0.290,-0.170,10.134,-24.700,-5.100,34.000,-0.727,2.539,-0.414
2019-05-26-01:56:51.853517,0.299,-0.225,10.146,-6.400,-7.200,9.400,-1.141,2.781,-0.008
2019-05-26-01:56:51.962987,0.282,-0.223,10.136,-7.900,-6.300,38.100,-0.961,2.633,-0.227
2019-05-26-01:56:52.072849,0.290,-0.158,10.131,-24.000,-6.800,29.000,-1.086,2.656,-0.094
2019-05-26-01:56:52.182549,0.325,-0.132,10.057,0.000,-6.200,10.700,-1.555,2.797,-0.234
2019-05-26-01:56:52.292027,0.325,-0.124,10.105,-23.200,-5.500,26.200,-0.773,2.828,-0.180
2019-05-26-01:56:52.401700,0.304,-0.182,10.160,-1.300,-5.500,9.100,-0.984,2.695,-0.164
2019-05-26-01:56:52.511459,0.275,-0.237,10.148,-8.000,-4.800,41.900,-0.867,2.734,-0.180
2019-05-26-01:56:52.621162,0.285,-0.227,10.138,-23.300,-5.900,29.000,-1.227,2.594,-0.102
2019-05-26-01:56:52.730905,0.304,-0.156,10.146,-3.200,-7.200,11.100,-0.852,2.734,-0.102
2019-05-26-01:56:52.840421,0.282,-0.208,10.138,-11.900,-6.200,39.400,-0.922,2.766,-0.055
2019-05-26-01:56:52.950037,0.323,-0.160,10.107,-21.000,-6.600,18.500,-0.953,2.648,0.016
2019-05-26-01:56:53.059562,0.333,-0.124,10.107,0.700,-5.700,14.900,-1.398,2.891,-0.180
2019-05-26-01:56:53.169195,0.313,-0.136,10.110,-15.400,-3.500,44.800,-0.992,2.656,-0.055
2019-05-26-01:56:53.279109,0.287,-0.211,10.122,-19.600,-7.200,22.100,-0.898,2.648,0.062
2019-05-26-01:56:53.388861,0.285,-0.237,10.143,-1.300,-6.000,17.800,-0.805,2.891,0.008
2019-05-26-01:56:53.498605,0.287,-0.220,10.141,-18.600,-5.300,40.200,-0.922,2.633,-0.117
2019-05-26-01:56:53.608571,0.299,-0.156,10.095,0.200,-6.200,16.900,-1.617,2.781,-0.055
2019-05-26-01:56:53.718216,0.349,-0.139,10.100,-17.800,-6.000,39.200,-1.086,2.977,-0.008
2019-05-26-01:56:53.827707,0.311,-0.153,10.124,-16.700,-7.100,13.900,-0.703,2.797,-0.383
2019-05-26-01:56:53.937221,0.287,-0.218,10.134,1.600,-4.600,25.400,-0.984,2.625,-0.164
2019-05-26-01:56:54.050952,0.304,-0.146,10.122,-19.300,-4.400,45.800,-0.875,2.461,-0.117
2019-05-26-01:56:54.160878,0.294,-0.201,10.117,-15.600,-8.300,14.400,-1.203,2.820,-0.211
2019-05-26-01:56:54.270575,0.270,-0.227,10.167,-0.400,-5.700,25.200,-1.180,2.562,-0.031
2019-05-26-01:56:54.380090,0.282,-0.196,10.150,-20.900,-6.000,36.700,-1.445,2.820,-0.078
2019-05-26-01:56:54.489827,0.311,-0.129,10.117,-10.000,-6.800,8.600,-1.164,2.711,0.016
2019-05-26-01:56:54.599490,0.337,-0.117,10.083,-22.400,-5.800,36.300,-1.352,2.625,-0.023
2019-05-26-01:56:54.709150,0.311,-0.156,10.141,-9.600,-7.800,5.700,-1.070,2.805,-0.078
2019-05-26-01:56:54.819085,0.266,-0.225,10.141,-1.500,-4.200,32.300,-1.039,2.570,-0.188
2019-05-26-01:56:54.928769,0.275,-0.234,10.158,-23.800,-4.600,39.600,-0.805,2.680,-0.211
2019-05-26-01:56:55.038392,0.297,-0.175,10.150,-9.900,-6.900,8.800,-0.992,2.500,-0.023
2019-05-26-01:56:55.149971,0.340,-0.144,10.076,-4.500,-4.200,31.100,-0.992,2.711,-0.180
2019-05-26-01:56:55.259593,0.290,-0.177,10.134,-23.600,-6.000,29.300,-1.008,2.758,-0.125
2019-05-26-01:56:55.369078,0.325,-0.146,10.088,-4.300,-6.300,9.000,-1.133,2.719,-0.164
2019-05-26-01:56:55.478638,0.325,-0.139,10.100,-4.700,-3.900,39.300,-0.844,2.539,-0.117
2019-05-26-01:56:55.594657,0.301,-0.189,10.138,-4.000,-6.900,7.900,-0.656,2.656,-0.078
2019-05-26-01:56:55.704384,0.297,-0.225,10.150,-4.900,-4.100,37.200,-1.000,2.789,0.125
2019-05-26-01:56:55.813910,0.292,-0.218,10.160,-24.100,-6.800,31.600,-1.086,2.633,-0.141
2019-05-26-01:56:55.923556,0.306,-0.208,10.148,-5.200,-8.300,10.800,-1.203,2.719,-0.273
2019-05-26-01:56:56.037698,0.287,-0.215,10.172,-9.700,-6.000,35.700,-1.500,2.539,-0.141
2019-05-26-01:56:56.147655,0.299,-0.177,10.124,-22.700,-6.000,25.600,-0.898,2.734,-0.125
2019-05-26-01:56:56.257242,0.340,-0.132,10.079,-9.000,-4.800,37.700,-1.453,2.891,-0.188
