Time,Acceleration X (m/s^2),Acceleration Y (m/s^2),Acceleration Z (m/s^2),Magnetometer X (uTesla), Magnetometer Y (uTesla)  , Magnetometer Z (uTesla),Gyroscope X (radians/s), Gyroscope Y (radians/s), Gyroscope Z (radians/s)
2019-05-26-02:24:57.299433,0.304,-0.184,10.122,7.400,-0.100,55.400,-1.117,2.766,-0.117
2019-05-26-02:24:57.405143,0.301,-0.179,10.136,6.700,-0.900,54.300,-1.070,2.930,-0.031
2019-05-26-02:24:57.511019,0.299,-0.182,10.122,7.900,-1.500,53.900,-0.984,2.883,-0.164
2019-05-26-02:24:57.616675,0.306,-0.184,10.114,7.500,-1.800,55.200,-0.898,2.703,0.055
2019-05-26-02:24:57.725609,0.294,-0.165,10.126,6.400,-0.900,55.200,-0.805,2.633,-0.070
2019-05-26-02:24:57.835140,0.290,-0.175,10.129,7.200,-0.400,53.200,-1.047,2.656,-0.406
2019-05-26-02:24:57.945080,0.301,-0.191,10.110,6.500,-0.400,54.200,-1.562,2.602,0.102
2019-05-26-02:24:58.054843,0.299,-0.179,10.119,7.500,0.100,53.800,-1.508,2.766,-0.117
2019-05-26-02:24:58.164495,0.299,-0.175,10.117,7.000,-1.200,53.700,-0.727,2.898,0.062
2019-05-26-02:24:58.274200,0.299,-0.189,10.119,7.600,-0.200,53.000,-0.922,2.797,-0.125
2019-05-26-02:24:58.383747,0.299,-0.177,10.124,7.500,0.000,53.100,-1.047,2.758,0.055
2019-05-26-02:24:58.493293,0.301,-0.194,10.107,7.900,-0.800,54.500,-0.891,2.625,-0.211
2019-05-26-02:24:58.602966,0.294,-0.189,10.134,7.100,-1.900,54.700,-0.961,2.500,-0.078
2019-05-26-02:24:58.712938,0.292,-0.177,10.126,7.100,-0.100,54.500,-0.820,2.586,-0.328
2019-05-26-02:24:58.822593,0.290,-0.175,10.134,7.900,-0.300,52.700,-1.305,2.570,-0.117
2019-05-26-02:24:58.932176,0.292,-0.201,10.122,6.800,-1.300,54.500,-1.164,2.547,-0.070
2019-05-26-02:24:59.041835,0.290,-0.189,10.119,7.400,-0.400,55.200,-1.188,2.672,0.148
2019-05-26-02:24:59.151865,0.311,-0.187,10.105,6.300,-0.400,53.100,-1.234,2.484,-0.328
2019-05-26-02:24:59.261600,0.294,-0.175,10.117,8.200,-0.400,53.400,-1.023,2.547,-0.094
2019-05-26-02:24:59.371289,0.301,-0.182,10.112,7.600,0.000,54.500,-0.703,2.562,-0.078
2019-05-26-02:24:59.480822,0.292,-0.187,10.134,7.100,-0.800,54.800,-1.555,2.594,-0.188
2019-05-26-02:24:59.590422,0.294,-0.182,10.105,7.400,0.000,54.300,-1.227,2.656,-0.125
2019-05-26-02:24:59.700031,0.297,-0.189,10.114,7.000,-0.100,53.500,-0.656,2.719,0.062
2019-05-26-02:24:59.809591,0.294,-0.184,10.119,6.400,-1.400,53.500,-1.094,2.953,-0.070
2019-05-26-02:24:59.919538,0.306,-0.187,10.119,7.900,-1.400,53.600,-1.117,2.758,-0.359
2019-05-26-02:25:00.029319,0.309,-0.182,10.124,7.700,-0.200,54.000,-1.031,2.617,-0.211
2019-05-26-02:25:00.138979,0.301,-0.187,10.134,7.600,-1.300,54.000,-1.258,2.734,-0.203
2019-05-26-02:25:00.250407,0.297,-0.177,10.122,7.600,-1.400,56.300,-0.961,2.852,-0.102
2019-05-26-02:25:00.360289,0.292,-0.189,10.146,7.100,-0.600,55.300,-0.922,2.672,-0.094
2019-05-26-02:25:00.469923,0.311,-0.201,10.129,7.700,-1.600,54.800,-0.953,2.664,0.078
2019-05-26-02:25:00.579621,0.301,-0.184,10.134,6.500,-0.500,54.100,-1.320,2.734,0.039
2019-05-26-02:25:00.689326,0.292,-0.184,10.126,7.300,-1.500,53.500,-0.797,2.828,-0.273
2019-05-26-02:25:00.798930,0.309,-0.196,10.117,6.700,-0.800,53.700,-0.891,2.883,-0.203
2019-05-26-02:25:00.908615,0.301,-0.179,10.114,7.800,-0.500,54.500,-1.406,2.852,-0.047
2019-05-26-02:25:01.018290,0.299,-0.191,10.124,6.700,-1.200,53.900,-1.055,2.688,0.031
2019-05-26-02:25:01.128231,0.297,-0.179,10.138,7.000,-0.600,55.000,-0.992,2.688,0.062
2019-05-26-02:25:01.242189,0.304,-0.170,10.112,6.900,-1.100,54.500,-1.148,2.789,0.039
2019-05-26-02:25:01.352208,0.294,-0.184,10.105,7.400,-0.300,54.700,-0.891,2.844,-0.180
2019-05-26-02:25:01.462239,0.285,-0.189,10.131,7.200,-0.600,53.000,-1.000,2.664,0.086
2019-05-26-02:25:01.571991,0.292,-0.201,10.119,6.600,0.000,54.200,-0.734,2.617,0.016
2019-05-26-02:25:01.681744,0.299,-0.184,10.110,7.200,-0.300,54.200,-0.867,2.766,-0.164
2019-05-26-02:25:01.791541,0.301,-0.179,10.112,7.400,-0.100,52.400,-0.875,2.742,-0.078
2019-05-26-02:25:01.901217,0.294,-0.189,10.136,7.200,-1.200,53.000,-1.164,2.711,0.109
2019-05-26-02:25:02.011097,0.304,-0.175,10.122,7.700,-0.500,55.300,-0.922,2.680,-0.094
2019-05-26-02:25:02.122619,0.301,-0.194,10.114,6.500,-0.900,54.300,-1.117,2.578,0.211
2019-05-26-02:25:02.232482,0.292,-0.179,10.124,6.900,0.200,55.100,-1.109,2.805,-0.117
2019-05-26-02:25:02.342366,0.301,-0.199,10.114,7.900,-0.700,54.600,-1.219,3.016,-0.148
2019-05-26-02:25:02.452232,0.299,-0.156,10.112,7.000,-1.400,54.300,-1.047,2.797,-0.281
2019-05-26-02:25:02.561875,0.292,-0.179,10.146,7.400,-0.500,54.400,-0.758,2.812,0.086
2019-05-26-02:25:02.671780,0.299,-0.179,10.131,7.500,-0.400,54.000,-0.719,2.625,-0.008
2019-05-26-02:25:02.781439,0.297,-0.184,10.141,8.100,-1.700,54.600,-0.727,2.461,-0.305
2019-05-26-02:25:02.891124,0.282,-0.170,10.122,6.600,-0.400,55.400,-0.602,2.695,-0.414
2019-05-26-02:25:03.000888,0.297,-0.182,10.119,6.500,-0.500,55.000,-1.227,2.570,-0.164
2019-05-26-02:25:03.110593,0.297,-0.182,10.117,7.300,-0.200,54.800,-0.969,2.625,-0.047
2019-05-26-02:25:03.220259,0.299,-0.189,10.126,7.400,-1.700,53.000,-0.789,2.859,0.211
2019-05-26-02:25:03.329872,0.294,-0.182,10.126,6.900,-0.100,55.600,-1.070,2.914,-0.148
2019-05-26-02:25:03.439575,0.297,-0.182,10.146,7.300,-1.900,54.200,-1.328,2.930,-0.031
2019-05-26-02:25:03.549613,0.311,-0.182,10.110,6.900,0.000,53.000,-0.805,2.820,-0.008
2019-05-26-02:25:03.659421,0.294,-0.170,10.102,7.300,-0.600,54.100,-1.242,2.641,0.188
2019-05-26-02:25:03.769059,0.299,-0.191,10.143,6.900,-1.400,55.200,-1.133,2.977,-0.188
2019-05-26-02:25:03.878928,0.309,-0.177,10.146,6.500,-1.000,52.300,-1.117,2.695,-0.234
2019-05-26-02:25:03.988596,0.287,-0.165,10.107,7.200,-1.000,53.900,-0.820,2.828,-0.125
2019-05-26-02:25:04.098270,0.306,-0.179,10.117,7.000,-0.600,53.500,-0.938,2.742,-0.102
2019-05-26-02:25:04.207949,0.306,-0.201,10.117,6.500,-1.100,53.500,-1.188,2.805,-0.102
2019-05-26-02:25:04.317708,0.304,-0.187,10.131,7.400,-0.600,53.600,-1.133,2.586,-0.117
2019-05-26-02:25:04.427362,0.290,-0.194,10.138,7.400,-0.200,53.600,-0.969,2.742,-0.125
2019-05-26-02:25:04.536997,0.292,-0.199,10.117,5.700,-0.900,54.400,-0.805,2.461,-0.297
2019-05-26-02:25:04.646728,0.299,-0.187,10.117,6.600,-0.300,54.400,-1.086,2.594,-0.141
2019-05-26-02:25:04.756694,0.306,-0.175,10.122,6.500,-1.100,54.400,-0.766,2.883,-0.125
2019-05-26-02:25:04.866617,0.304,-0.167,10.124,7.300,-2.000,53.500,-0.805,2.844,0.016
2019-05-26-02:25:04.976275,0.311,-0.184,10.112,7.100,-0.200,56.200,-1.234,2.711,-0.023
2019-05-26-02:25:05.086130,0.297,-0.189,10.112,7.000,-1.600,53.800,-1.008,2.906,-0.227
2019-05-26-02:25:05.195822,0.294,-0.184,10.122,6.600,-1.400,53.700,-0.586,2.797,-0.148
2019-05-26-02:25:05.305462,0.301,-0.182,10.107,7.000,-2.300,54.600,-0.773,2.828,-0.070
2019-05-26-02:25:05.415178,0.304,-0.189,10.138,6.900,-2.000,54.000,-1.383,2.680,-0.148
2019-05-26-02:25:05.524863,0.292,-0.194,10.122,6.300,-1.000,54.900,-0.586,2.828,-0.203
2019-05-26-02:25:05.634782,0.290,-0.175,10.112,7.500,-1.600,54.500,-1.359,2.844,-0.227
2019-05-26-02:25:05.744716,0.304,-0.182,10.119,7.200,-0.400,54.300,-0.852,2.844,-0.234
2019-05-26-02:25:05.854460,0.304,-0.191,10.129,7.600,-1.000,54.800,-0.781,2.969,-0.258
2019-05-26-02:25:05.964419,0.294,-0.184,10.134,7.100,-1.200,53.900,-0.828,2.508,-0.023
2019-05-26-02:25:06.074143,0.301,-0.196,10.126,7.700,-0.500,53.600,-0.805,2.844,0.102
2019-05-26-02:25:06.183827,0.275,-0.182,10.126,8.200,-1.800,53.300,-1.102,2.711,0.016
2019-05-26-02:25:06.293805,0.301,-0.201,10.110,7.000,-1.000,52.400,-0.852,2.734,-0.094
2019-05-26-02:25:06.403451,0.304,-0.170,10.119,7.100,-0.800,54.300,-0.664,2.672,0.016
2019-05-26-02:25:06.513162,0.309,-0.177,10.117,6.900,-0.800,53.200,-0.609,2.711,0.016
2019-05-26-02:25:06.622883,0.309,-0.187,10.117,7.500,-0.900,54.000,-1.141,2.938,-0.008
2019-05-26-02:25:06.732521,0.294,-0.184,10.114,7.200,-1.000,55.000,-0.875,2.797,0.086
2019-05-26-02:25:06.842095,0.309,-0.203,10.105,7.100,-0.300,54.000,-0.875,2.820,-0.203
2019-05-26-02:25:06.951662,0.280,-0.184,10.126,6.300,-0.700,54.500,-0.961,2.719,-0.117
2019-05-26-02:25:07.061451,0.297,-0.189,10.124,7.100,-0.600,53.500,-0.695,2.711,-0.070
2019-05-26-02:25:07.171463,0.318,-0.179,10.107,6.800,-0.400,53.900,-0.828,2.633,-0.008
2019-05-26-02:25:07.281233,0.297,-0.172,10.112,7.200,-0.700,52.600,-1.273,2.773,0.031
2019-05-26-02:25:07.391021,0.292,-0.170,10.119,7.800,-1.000,55.000,-1.289,2.656,-0.031
2019-05-26-02:25:07.501055,0.294,-0.189,10.119,6.400,0.400,54.100,-0.852,2.438,-0.203
2019-05-26-02:25:07.611078,0.294,-0.182,10.114,7.000,-0.800,55.900,-1.109,2.891,-0.141
2019-05-26-02:25:07.720888,0.304,-0.191,10.107,7.400,-1.000,54.700,-1.141,2.867,-0.125
2019-05-26-02:25:07.830556,0.297,-0.187,10.107,6.600,-0.300,54.100,-1.305,2.766,-0.008
2019-05-26-02:25:07.940175,0.299,-0.189,10.110,7.300,-0.500,54.500,-1.070,2.695,-0.164
2019-05-26-02:25:08.049883,0.297,-0.182,10.112,7.700,-0.700,54.000,-1.094,2.461,-0.188
2019-05-26-02:25:08.159570,0.299,-0.172,10.134,6.900,-0.900,53.800,-0.516,2.750,0.031
2019-05-26-02:25:08.269787,0.297,-0.187,10.119,6.800,-0.800,55.000,-1.094,3.125,-0.094
2019-05-26-02:25:08.379616,0.306,-0.184,10.107,7.500,-0.900,54.900,-1.023,2.648,-0.102
2019-05-26-02:25:08.489297,0.304,-0.182,10.112,7.600,-0.200,54.900,-0.867,2.672,-0.070
2019-05-26-02:25:08.598989,0.297,-0.194,10.117,7.200,0.600,54.400,-0.953,3.000,-0.102
2019-05-26-02:25:08.709001,0.299,-0.177,10.126,6.600,-1.200,54.000,-1.359,2.562,-0.094
2019-05-26-02:25:08.818610,0.297,-0.184,10.110,6.500,0.000,55.200,-1.117,2.680,-0.227
2019-05-26-02:25:08.928212,0.297,-0.182,10.114,7.300,-0.600,53.600,-1.109,2.758,-0.180
2019-05-26-02:25:09.037884,0.306,-0.179,10.126,6.700,-0.200,54.600,-0.984,2.867,-0.141
2019-05-26-02:25:09.147627,0.304,-0.187,10.136,7.900,-1.300,54.100,-0.539,2.852,-0.094
2019-05-26-02:25:09.257388,0.294,-0.196,10.124,7.500,-1.300,53.200,-0.727,2.914,0.008
2019-05-26-02:25:09.367074,0.299,-0.199,10.110,8.100,-1.800,54.700,-1.156,2.844,-0.141
2019-05-26-02:25:09.477229,0.304,-0.179,10.129,7.200,-0.400,53.600,-0.781,2.844,0.195
2019-05-26-02:25:09.587117,0.304,-0.177,10.117,7.700,-0.500,54.600,-0.852,2.758,-0.250
2019-05-26-02:25:09.696890,0.306,-0.189,10.129,7.600,0.000,52.500,-0.805,2.672,-0.094
2019-05-26-02:25:09.806914,0.304,-0.184,10.136,7.300,-0.700,52.700,-0.898,2.812,0.156
2019-05-26-02:25:09.916911,0.292,-0.196,10.102,5.700,-0.100,54.300,-1.328,2.656,-0.297
2019-05-26-02:25:10.026765,0.301,-0.179,10.126,6.900,-1.300,54.200,-0.898,2.742,-0.008
2019-05-26-02:25:10.136553,0.297,-0.167,10.119,7.300,-0.600,54.700,-0.984,2.766,-0.250
2019-05-26-02:25:10.246198,0.304,-0.213,10.117,6.900,-2.000,54.300,-1.383,2.633,-0.273
2019-05-26-02:25:10.355786,0.304,-0.189,10.134,7.000,-0.700,55.300,-0.805,2.883,0.031
2019-05-26-02:25:10.474654,0.304,-0.175,10.107,6.700,-0.500,54.200,-0.703,2.711,0.055
2019-05-26-02:25:10.584368,0.297,-0.187,10.131,6.900,-0.200,53.900,-0.797,2.883,-0.102
2019-05-26-02:25:10.694284,0.299,-0.199,10.114,6.400,-1.700,53.700,-0.938,2.648,-0.102
2019-05-26-02:25:10.804115,0.304,-0.179,10.117,8.600,-0.800,54.300,-0.633,2.734,-0.250
2019-05-26-02:25:10.913761,0.316,-0.177,10.146,7.500,-1.700,53.800,-1.266,2.695,-0.031
2019-05-26-02:25:11.023491,0.299,-0.182,10.112,7.600,0.200,55.600,-0.938,2.797,-0.164
2019-05-26-02:25:11.133475,0.301,-0.184,10.134,7.200,-1.000,54.400,-0.969,2.820,0.078
2019-05-26-02:25:11.243208,0.287,-0.182,10.117,7.200,-0.300,53.800,-1.039,2.766,-0.273
2019-05-26-02:25:11.353022,0.309,-0.189,10.122,7.800,-0.700,53.000,-1.133,2.672,-0.094
2019-05-26-02:25:11.462621,0.290,-0.189,10.119,7.800,-0.300,53.300,-1.344,2.727,0.188
2019-05-26-02:25:11.572179,0.297,-0.179,10.129,7.500,-1.300,52.900,-0.695,2.719,0.008
2019-05-26-02:25:11.681899,0.297,-0.184,10.134,7.600,-1.600,54.500,-0.734,2.836,0.062
2019-05-26-02:25:11.791598,0.306,-0.194,10.093,7.100,-0.200,53.600,-1.188,2.820,0.125
2019-05-26-02:25:11.901467,0.311,-0.189,10.124,6.900,0.400,54.800,-0.898,2.828,-0.180
2019-05-26-02:25:12.011344,0.299,-0.172,10.138,6.600,-1.000,54.900,-0.992,2.828,-0.164
2019-05-26-02:25:12.121207,0.304,-0.187,10.126,7.100,-0.700,55.100,-1.266,2.711,-0.227
2019-05-26-02:25:12.230869,0.299,-0.182,10.124,7.000,-0.400,55.900,-0.797,2.766,-0.102
2019-05-26-02:25:12.340845,0.301,-0.184,10.138,8.100,-0.600,54.700,-1.062,2.500,-0.047
2019-05-26-02:25:12.450528,0.316,-0.184,10.136,7.100,-1.100,54.000,-1.039,2.648,-0.117
2019-05-26-02:25:12.560114,0.309,-0.179,10.119,6.600,-0.100,54.100,-0.992,2.750,0.031
2019-05-26-02:25:12.669874,0.299,-0.172,10.136,7.000,-0.100,54.600,-0.656,2.633,-0.047
2019-05-26-02:25:12.779736,0.306,-0.189,10.107,8.100,0.200,53.500,-1.438,2.648,0.062
2019-05-26-02:25:12.889508,0.304,-0.189,10.124,7.300,-1.400,55.000,-1.188,2.797,0.102
2019-05-26-02:25:12.999305,0.299,-0.201,10.131,7.600,-0.400,53.700,-1.117,2.719,-0.047
2019-05-26-02:25:13.109396,0.294,-0.172,10.107,8.200,-1.500,55.100,-0.945,2.930,0.125
2019-05-26-02:25:13.219096,0.297,-0.182,10.136,7.900,-0.400,53.500,-0.922,2.633,-0.297
2019-05-26-02:25:13.328718,0.309,-0.182,10.126,7.400,-1.600,55.700,-0.773,2.672,-0.008
2019-05-26-02:25:13.438332,0.304,-0.182,10.114,7.200,-1.000,53.800,-0.828,2.867,-0.141
2019-05-26-02:25:13.548291,0.309,-0.175,10.107,7.200,-1.300,53.100,-0.867,2.867,-0.273
2019-05-26-02:25:13.657999,0.309,-0.182,10.117,7.700,-0.600,55.400,-1.008,2.742,-0.078
2019-05-26-02:25:13.767854,0.290,-0.179,10.112,7.200,0.200,53.900,-0.922,2.438,-0.305
2019-05-26-02:25:13.877686,0.297,-0.182,10.124,8.000,0.500,53.800,-0.531,2.883,-0.227
2019-05-26-02:25:13.987360,0.299,-0.177,10.107,7.400,-0.800,54.500,-0.789,3.109,-0.078
2019-05-26-02:25:14.097190,0.299,-0.184,10.107,7.500,-0.700,54.400,-1.195,2.688,0.039
2019-05-26-02:25:14.206988,0.297,-0.172,10.105,7.600,-0.500,55.000,-0.867,2.820,-0.211
2019-05-26-02:25:14.317004,0.294,-0.196,10.124,7.000,-1.000,54.900,-0.703,2.781,-0.203
2019-05-26-02:25:14.426737,0.301,-0.201,10.129,6.700,-0.900,53.800,-0.719,2.828,-0.297
2019-05-26-02:25:14.536423,0.301,-0.182,10.126,6.600,-0.500,53.200,-1.422,2.570,-0.102
2019-05-26-02:25:14.646157,0.290,-0.187,10.119,7.000,-0.100,54.000,-1.023,2.711,-0.008
2019-05-26-02:25:14.756071,0.301,-0.196,10.119,7.100,-1.600,54.400,-1.234,2.883,-0.234
2019-05-26-02:25:14.865964,0.309,-0.191,10.131,7.400,0.400,53.700,-0.891,2.883,-0.102
2019-05-26-02:25:14.975731,0.290,-0.191,10.119,8.100,-0.400,54.500,-0.844,2.953,-0.070
2019-05-26-02:25:15.085478,0.321,-0.167,10.122,6.900,-0.400,54.800,-1.328,2.797,-0.117
2019-05-26-02:25:15.195210,0.313,-0.177,10.184,7.100,-1.300,54.700,-0.648,2.656,-0.023
2019-05-26-02:25:15.305005,0.285,-0.187,10.131,7.100,-0.300,53.500,-1.133,2.609,0.008
2019-05-26-02:25:15.414691,0.301,-0.184,10.153,7.400,-0.600,55.000,-1.164,2.805,-0.164
2019-05-26-02:25:15.524754,0.290,-0.201,10.129,7.800,0.100,53.600,-1.023,2.586,-0.227
2019-05-26-02:25:15.634536,0.292,-0.191,10.114,8.300,-0.800,54.500,-1.109,2.797,-0.164
2019-05-26-02:25:15.744468,0.313,-0.187,10.126,7.600,-0.600,53.400,-0.883,2.789,0.156
2019-05-26-02:25:15.854207,0.304,-0.184,10.138,6.700,-0.100,55.900,-0.477,2.680,-0.273
2019-05-26-02:25:15.964202,0.301,-0.170,10.129,7.600,-0.500,53.300,-0.719,2.547,-0.164
2019-05-26-02:25:16.073932,0.301,-0.189,10.136,7.100,0.300,53.500,-0.727,2.797,0.133
2019-05-26-02:25:16.183734,0.301,-0.187,10.136,7.400,-0.500,53.300,-0.648,2.742,-0.102
2019-05-26-02:25:16.293456,0.292,-0.187,10.114,6.900,-0.500,54.500,-1.336,2.695,-0.180
2019-05-26-02:25:16.403130,0.294,-0.187,10.126,6.900,-0.300,53.500,-0.883,2.773,0.031
2019-05-26-02:25:16.512831,0.306,-0.177,10.110,7.300,-0.800,55.400,-0.875,2.664,0.055
2019-05-26-02:25:16.622548,0.297,-0.191,10.126,6.600,-1.100,54.700,-1.094,2.711,-0.203
2019-05-26-02:25:16.732476,0.290,-0.182,10.107,7.000,-0.200,55.100,-1.008,2.656,-0.141
2019-05-26-02:25:16.842195,0.301,-0.184,10.129,6.800,0.100,55.600,-1.133,2.758,-0.031
2019-05-26-02:25:16.951944,0.290,-0.184,10.107,7.500,-0.600,54.200,-0.969,2.734,0.062
2019-05-26-02:25:17.061696,0.297,-0.158,10.095,6.700,0.500,54.700,-0.898,2.625,-0.094
2019-05-26-02:25:17.171624,0.294,-0.184,10.119,8.000,-0.900,54.400,-0.805,2.789,0.086
2019-05-26-02:25:17.281346,0.325,-0.191,10.119,7.100,-0.200,54.000,-0.828,2.781,-0.117
2019-05-26-02:25:17.391107,0.301,-0.189,10.114,7.200,-0.600,53.200,-1.070,2.477,-0.023
2019-05-26-02:25:17.500739,0.299,-0.165,10.112,7.200,-0.200,54.200,-1.180,2.625,-0.273
2019-05-26-02:25:17.610463,0.301,-0.199,10.100,7.000,-0.700,54.600,-0.695,2.742,-0.023
2019-05-26-02:25:17.720234,0.294,-0.184,10.129,8.200,-0.600,56.000,-0.992,2.602,0.086
2019-05-26-02:25:17.829916,0.301,-0.196,10.141,7.200,-0.700,54.200,-0.953,2.672,0.062
2019-05-26-02:25:17.943649,0.309,-0.191,10.114,6.600,-0.300,54.600,-0.805,2.547,-0.078
2019-05-26-02:25:18.053448,0.316,-0.139,10.177,7.600,-0.500,53.900,-0.867,2.648,-0.008
2019-05-26-02:25:18.163190,0.306,-0.196,10.110,7.600,-0.100,54.700,-0.969,2.930,0.125
2019-05-26-02:25:18.272975,0.309,-0.201,10.102,7.600,0.100,55.200,-0.969,2.695,-0.055
2019-05-26-02:25:18.383041,0.306,-0.187,10.122,7.700,-0.700,54.600,-0.742,2.695,0.008
2019-05-26-02:25:18.493512,0.287,-0.182,10.112,7.000,-0.100,55.100,-1.328,2.734,-0.055
2019-05-26-02:25:18.603494,0.325,-0.199,10.095,7.600,0.000,57.100,-0.992,2.758,-0.234
2019-05-26-02:25:18.713321,0.323,-0.175,10.100,6.900,0.100,54.100,-0.992,2.820,-0.148
2019-05-26-02:25:18.823022,0.299,-0.196,10.131,7.900,-1.300,54.600,-1.047,2.555,0.055
2019-05-26-02:25:18.934686,0.294,-0.177,10.138,7.100,-0.800,55.900,-0.984,2.867,-0.180
2019-05-26-02:25:19.044507,0.292,-0.184,10.126,7.500,-0.700,54.600,-0.938,2.867,-0.281
2019-05-26-02:25:19.154449,0.301,-0.189,10.119,6.800,-0.200,55.700,-1.008,2.906,-0.180
2019-05-26-02:25:19.264177,0.285,-0.203,10.119,7.300,0.000,55.600,-0.953,2.562,0.016
2019-05-26-02:25:19.373806,0.294,-0.191,10.138,7.400,-0.300,54.800,-1.023,2.781,-0.188
2019-05-26-02:25:19.483412,0.294,-0.179,10.119,7.600,0.400,53.300,-0.742,2.680,-0.141
2019-05-26-02:25:19.593298,0.294,-0.187,10.126,6.800,-0.600,54.900,-1.141,2.586,-0.211
2019-05-26-02:25:19.703119,0.297,-0.189,10.117,7.800,-1.200,54.800,-0.758,2.883,0.078
2019-05-26-02:25:19.813027,0.301,-0.175,10.131,7.200,-0.200,54.000,-0.852,2.844,-0.250
2019-05-26-02:25:19.922981,0.301,-0.196,10.124,7.500,-1.100,55.300,-1.188,2.703,0.031
2019-05-26-02:25:20.032863,0.299,-0.187,10.114,8.100,-0.200,54.500,-1.008,2.523,-0.164
2019-05-26-02:25:20.142638,0.292,-0.189,10.112,7.000,-0.800,53.900,-1.477,2.711,-0.148
2019-05-26-02:25:20.252333,0.304,-0.194,10.124,7.000,-0.700,55.400,-0.773,2.781,-0.234
2019-05-26-02:25:20.362336,0.299,-0.196,10.143,7.700,0.000,55.000,-1.258,2.781,-0.117
2019-05-26-02:25:20.472042,0.294,-0.191,10.131,8.300,0.000,54.900,-0.734,2.602,0.055
2019-05-26-02:25:20.581674,0.301,-0.184,10.122,8.800,-1.000,55.000,-1.547,2.672,-0.164
2019-05-26-02:25:20.691385,0.306,-0.196,10.143,7.700,-0.600,54.900,-0.867,2.742,-0.055
2019-05-26-02:25:20.801451,0.285,-0.196,10.131,6.700,0.000,54.900,-0.969,2.672,-0.141
2019-05-26-02:25:20.911340,0.301,-0.189,10.122,8.400,-0.600,53.000,-0.969,2.461,-0.055
2019-05-26-02:25:21.021182,0.292,-0.170,10.117,7.200,-0.600,54.400,-1.062,2.719,-0.328
2019-05-26-02:25:21.131016,0.294,-0.175,10.117,6.600,0.100,53.500,-0.430,2.633,-0.180
2019-05-26-02:25:21.240853,0.306,-0.179,10.124,6.400,-0.100,53.300,-1.086,2.625,-0.164
2019-05-26-02:25:21.350521,0.294,-0.179,10.117,8.500,-0.800,55.200,-1.312,2.828,-0.250
2019-05-26-02:25:21.460120,0.309,-0.194,10.134,6.800,0.000,52.500,-0.766,2.820,-0.211
2019-05-26-02:25:21.570091,0.292,-0.191,10.119,7.100,-1.500,53.600,-0.867,2.609,-0.180
2019-05-26-02:25:21.679912,0.306,-0.179,10.131,7.100,-0.500,54.000,-0.898,2.547,-0.125
2019-05-26-02:25:21.789621,0.299,-0.184,10.134,7.500,-0.500,54.700,-0.789,2.625,0.016
2019-05-26-02:25:21.899946,0.297,-0.187,10.136,7.800,-1.600,54.200,-1.305,2.648,-0.117
2019-05-26-02:25:22.009763,0.297,-0.189,10.126,7.400,-1.200,54.500,-0.820,2.625,-0.047
2019-05-26-02:25:22.119595,0.297,-0.182,10.110,7.200,-1.400,54.500,-0.680,2.727,0.148
2019-05-26-02:25:22.229402,0.294,-0.182,10.112,6.000,-0.400,52.900,-0.984,2.477,-0.117
2019-05-26-02:25:22.339113,0.301,-0.182,10.112,6.400,-0.300,54.200,-0.742,2.867,-0.070
2019-05-26-02:25:22.448725,0.287,-0.172,10.119,8.300,-0.900,52.900,-1.086,2.695,-0.164
2019-05-26-02:25:22.558339,0.292,-0.187,10.131,6.800,-0.700,55.600,-0.945,2.852,-0.117
2019-05-26-02:25:22.668038,0.306,-0.170,10.124,6.700,-1.900,53.300,-0.859,2.672,0.039
2019-05-26-02:25:22.777952,0.301,-0.191,10.119,7.900,0.300,53.800,-1.203,2.867,-0.102
2019-05-26-02:25:22.887693,0.301,-0.194,10.119,7.300,-1.200,53.700,-1.062,2.719,-0.047
2019-05-26-02:25:23.001435,0.297,-0.189,10.117,6.700,0.100,54.300,-0.875,2.758,-0.008
2019-05-26-02:25:23.111466,0.297,-0.191,10.112,7.000,-0.300,54.800,-1.016,2.719,-0.180
2019-05-26-02:25:23.221354,0.280,-0.172,10.138,7.500,-0.100,53.800,-0.781,2.719,-0.188
2019-05-26-02:25:23.331101,0.309,-0.187,10.124,7.300,-1.400,54.700,-1.102,3.039,-0.125
2019-05-26-02:25:23.440758,0.292,-0.187,10.131,6.800,0.000,55.100,-1.250,2.711,-0.117
2019-05-26-02:25:23.550940,0.306,-0.172,10.129,7.000,-0.400,53.900,-1.211,2.844,-0.102
2019-05-26-02:25:23.660913,0.299,-0.194,10.114,6.700,-1.800,56.300,-1.094,2.719,-0.297
2019-05-26-02:25:23.770702,0.309,-0.184,10.134,6.000,-0.800,55.200,-1.328,2.797,-0.117
2019-05-26-02:25:23.880351,0.297,-0.172,10.124,6.400,-0.400,55.500,-1.070,2.812,0.062
2019-05-26-02:25:23.990381,0.301,-0.177,10.124,7.000,-0.800,53.800,-1.156,2.711,-0.055
2019-05-26-02:25:24.100190,0.292,-0.177,10.138,6.900,-1.000,53.100,-0.922,2.719,-0.148
2019-05-26-02:25:24.209973,0.294,-0.187,10.100,6.500,-0.400,54.400,-0.977,2.539,0.055
2019-05-26-02:25:24.319936,0.292,-0.172,10.117,6.300,-0.300,53.600,-0.711,3.102,0.008
2019-05-26-02:25:24.429627,0.285,-0.184,10.122,7.000,-0.600,55.300,-0.945,2.758,-0.008
2019-05-26-02:25:24.539433,0.304,-0.194,10.126,7.000,-0.700,55.200,-0.875,2.867,-0.203
2019-05-26-02:25:24.649435,0.297,-0.189,10.134,7.500,-0.600,54.300,-0.703,2.922,-0.078
2019-05-26-02:25:24.759214,0.301,-0.172,10.110,7.200,0.000,54.600,-1.070,2.766,0.039
2019-05-26-02:25:24.869114,0.294,-0.163,10.129,7.100,-0.700,55.000,-1.188,2.852,-0.164
2019-05-26-02:25:24.978906,0.316,-0.187,10.122,7.800,0.000,55.200,-0.992,2.477,-0.055
2019-05-26-02:25:25.088697,0.304,-0.194,10.141,7.000,-1.000,54.800,-1.016,2.844,-0.070
2019-05-26-02:25:25.198712,0.290,-0.182,10.129,7.300,-0.900,54.200,-1.000,2.953,-0.164
2019-05-26-02:25:25.308501,0.297,-0.182,10.124,6.600,-0.600,55.800,-1.070,2.570,-0.180
2019-05-26-02:25:25.418150,0.301,-0.184,10.112,7.800,-1.100,54.400,-0.992,2.883,-0.250
2019-05-26-02:25:25.528051,0.304,-0.182,10.105,6.800,-1.400,55.900,-1.031,2.891,-0.078
2019-05-26-02:25:25.637881,0.306,-0.175,10.129,7.300,-0.700,54.800,-1.062,2.742,-0.188
2019-05-26-02:25:25.747714,0.304,-0.187,10.124,7.100,-0.600,54.800,-1.180,2.773,0.016
2019-05-26-02:25:25.857400,0.301,-0.182,10.110,7.000,-0.400,53.900,-0.867,2.758,-0.094
2019-05-26-02:25:25.967157,0.297,-0.184,10.126,6.700,-0.200,54.200,-0.859,2.656,-0.055
2019-05-26-02:25:26.076899,0.304,-0.187,10.129,6.600,-0.700,53.200,-1.031,2.828,-0.125
2019-05-26-02:25:26.186758,0.285,-0.189,10.134,6.700,-0.500,55.400,-1.180,2.648,-0.031
2019-05-26-02:25:26.296536,0.290,-0.179,10.126,8.100,0.800,53.700,-0.938,2.906,-0.148
2019-05-26-02:25:26.406607,0.304,-0.182,10.112,7.600,-0.500,55.600,-1.391,2.773,0.016
2019-05-26-02:25:26.516262,0.299,-0.184,10.110,6.500,-0.500,54.900,-0.930,2.648,0.039
2019-05-26-02:25:26.626017,0.294,-0.191,10.134,6.500,-0.200,55.500,-1.258,2.938,-0.203
2019-05-26-02:25:26.735927,0.306,-0.179,10.117,7.600,-1.800,54.000,-1.039,2.805,-0.281
2019-05-26-02:25:26.845663,0.294,-0.177,10.124,7.900,0.000,54.800,-1.242,2.820,0.109
2019-05-26-02:25:26.955358,0.301,-0.184,10.105,6.600,-0.900,54.900,-1.164,2.781,-0.047
2019-05-26-02:25:27.065018,0.306,-0.175,10.107,7.300,-1.900,54.200,-1.117,2.867,-0.047
2019-05-26-02:25:27.174919,0.299,-0.191,10.107,6.800,-0.600,53.800,-1.070,2.734,-0.367
2019-05-26-02:25:27.286676,0.290,-0.189,10.112,7.500,-1.700,55.400,-1.133,2.828,-0.250
2019-05-26-02:25:27.396478,0.318,-0.182,10.131,6.200,-0.600,54.100,-0.359,2.766,-0.281
2019-05-26-02:25:27.506088,0.306,-0.172,10.146,8.000,-0.600,55.300,-0.867,2.648,-0.094
2019-05-26-02:25:27.616087,0.292,-0.194,10.122,8.000,-0.400,55.000,-1.016,2.539,0.086
2019-05-26-02:25:27.725915,0.304,-0.184,10.112,7.700,-0.600,53.400,-0.656,2.648,-0.094
2019-05-26-02:25:27.835502,0.299,-0.189,10.110,8.200,-0.300,54.100,-1.016,2.484,-0.320
2019-05-26-02:25:27.945385,0.301,-0.175,10.122,7.300,-0.500,53.900,-1.500,2.820,-0.141
2019-05-26-02:25:28.059645,0.309,-0.191,10.122,7.100,0.200,54.800,-0.648,2.820,-0.211
2019-05-26-02:25:28.169517,0.306,-0.199,10.138,6.300,-1.000,54.800,-1.227,2.734,-0.008
2019-05-26-02:25:28.279384,0.292,-0.206,10.112,7.600,-0.800,54.400,-0.961,2.594,0.008
2019-05-26-02:25:28.389054,0.311,-0.177,10.129,7.700,-0.300,54.500,-0.633,2.719,0.008
2019-05-26-02:25:28.498665,0.297,-0.175,10.122,7.500,0.000,53.900,-1.016,2.789,0.039
2019-05-26-02:25:28.608383,0.309,-0.179,10.117,6.600,-0.800,54.700,-1.016,2.836,0.148
2019-05-26-02:25:28.718641,0.294,-0.187,10.129,6.900,-0.200,54.900,-0.961,2.758,-0.078
2019-05-26-02:25:28.828481,0.297,-0.187,10.141,7.300,-0.800,54.800,-0.852,2.742,-0.094
2019-05-26-02:25:28.938202,0.297,-0.177,10.114,6.900,-0.400,54.000,-0.688,2.758,0.055
2019-05-26-02:25:29.047945,0.301,-0.175,10.122,6.700,-1.500,54.800,-0.875,2.633,-0.055
2019-05-26-02:25:29.157984,0.306,-0.184,10.131,7.000,-1.600,53.400,-0.578,2.844,-0.148
2019-05-26-02:25:29.267742,0.292,-0.194,10.124,6.900,-0.300,52.300,-1.445,2.758,0.008
2019-05-26-02:25:29.377369,0.299,-0.191,10.126,6.600,-0.500,54.900,-1.336,2.594,-0.211
2019-05-26-02:25:29.487077,0.297,-0.194,10.117,7.500,-0.500,54.000,-1.398,2.695,-0.203
2019-05-26-02:25:29.596797,0.294,-0.172,10.136,7.400,-0.200,55.100,-1.133,2.719,-0.070
2019-05-26-02:25:29.706570,0.297,-0.187,10.129,6.100,-0.700,53.500,-1.172,2.875,0.055
2019-05-26-02:25:29.816561,0.301,-0.191,10.098,7.400,-0.500,54.600,-1.211,2.781,-0.117
2019-05-26-02:25:29.926665,0.290,-0.170,10.124,7.100,-1.200,56.300,-0.781,2.711,-0.328
2019-05-26-02:25:30.036514,0.297,-0.203,10.131,7.500,-1.500,54.000,-1.305,2.820,-0.367
2019-05-26-02:25:30.146333,0.309,-0.182,10.136,7.500,-1.100,54.200,-1.070,2.742,-0.023
2019-05-26-02:25:30.256035,0.294,-0.201,10.148,7.000,-0.100,53.100,-1.375,2.562,-0.164
2019-05-26-02:25:30.366051,0.306,-0.191,10.117,7.700,-0.500,55.200,-1.141,2.711,0.188
2019-05-26-02:25:30.475811,0.309,-0.191,10.143,7.100,-0.700,54.500,-1.234,2.711,-0.211
2019-05-26-02:25:30.585506,0.294,-0.179,10.114,6.900,-0.400,54.700,-1.062,2.852,-0.359
2019-05-26-02:25:30.695238,0.299,-0.189,10.134,7.500,-0.600,54.000,-0.648,2.547,-0.258
2019-05-26-02:25:30.804969,0.287,-0.177,10.138,7.100,-0.800,55.800,-1.242,2.844,0.055
2019-05-26-02:25:30.914724,0.325,-0.184,10.126,6.900,-0.700,55.100,-0.672,2.977,-0.227
2019-05-26-02:25:31.024447,0.299,-0.182,10.138,7.300,0.000,55.600,-0.938,2.562,-0.164
2019-05-26-02:25:31.134379,0.299,-0.201,10.122,6.600,-1.100,55.300,-1.141,2.562,-0.070
2019-05-26-02:25:31.244147,0.292,-0.184,10.119,7.100,-0.200,53.200,-1.289,2.695,-0.070
2019-05-26-02:25:31.353815,0.299,-0.194,10.122,7.500,-1.000,55.300,-1.086,2.719,-0.078
2019-05-26-02:25:31.463412,0.299,-0.194,10.110,7.200,-0.700,54.600,-1.094,2.562,-0.281
2019-05-26-02:25:31.573413,0.294,-0.179,10.114,7.200,-1.100,54.300,-0.898,2.812,0.016
2019-05-26-02:25:31.683246,0.287,-0.172,10.131,7.000,-0.500,54.800,-0.922,2.930,0.078
2019-05-26-02:25:31.793116,0.285,-0.201,10.112,8.100,-0.300,54.600,-1.008,2.633,-0.047
2019-05-26-02:25:31.902889,0.309,-0.177,10.134,7.600,0.100,54.400,-0.828,2.633,-0.070
2019-05-26-02:25:32.012617,0.304,-0.175,10.136,6.800,-0.900,53.800,-1.227,2.695,-0.148
2019-05-26-02:25:32.122390,0.297,-0.182,10.119,6.800,-0.700,54.700,-1.258,2.570,-0.164
2019-05-26-02:25:32.232084,0.299,-0.175,10.126,7.100,-1.100,54.600,-0.781,2.977,-0.078
2019-05-26-02:25:32.342105,0.292,-0.194,10.114,7.000,-0.600,53.800,-1.109,2.883,-0.258
2019-05-26-02:25:32.451796,0.287,-0.175,10.134,7.700,-0.700,53.600,-0.859,3.062,-0.031
2019-05-26-02:25:32.561488,0.299,-0.172,10.124,8.400,-0.200,53.700,-0.672,2.625,-0.148
2019-05-26-02:25:32.671378,0.301,-0.196,10.119,8.000,-1.900,54.000,-1.156,2.852,-0.094
2019-05-26-02:25:32.781410,0.290,-0.175,10.131,7.600,-0.800,55.100,-1.016,2.922,0.062
2019-05-26-02:25:32.891245,0.301,-0.182,10.117,7.200,-0.800,54.800,-0.719,2.625,-0.055
2019-05-26-02:25:33.001049,0.287,-0.203,10.122,7.300,0.500,55.900,-1.094,2.625,-0.094
2019-05-26-02:25:33.114713,0.304,-0.206,10.134,7.400,-1.000,55.600,-0.844,2.914,-0.141
2019-05-26-02:25:33.224409,0.309,-0.175,10.112,6.900,0.100,54.000,-0.781,2.844,-0.258
2019-05-26-02:25:33.334026,0.328,-0.199,10.134,7.600,-0.800,54.100,-1.047,2.758,-0.141
2019-05-26-02:25:33.443737,0.309,-0.182,10.131,6.700,-1.200,54.900,-0.711,2.734,0.266
2019-05-26-02:25:33.553708,0.290,-0.163,10.131,6.500,-2.200,53.700,-1.070,2.602,0.188
2019-05-26-02:25:33.663548,0.299,-0.170,10.124,7.400,-0.900,54.600,-1.352,2.656,-0.141
2019-05-26-02:25:33.773205,0.309,-0.194,10.141,7.300,0.200,54.500,-0.922,2.500,-0.102
2019-05-26-02:25:33.882977,0.280,-0.230,10.105,7.900,-0.200,54.200,-0.992,2.484,-0.180
2019-05-26-02:25:33.993097,0.311,-0.218,10.129,9.900,0.200,50.800,-0.555,2.781,-0.203
2019-05-26-02:25:34.103001,0.285,-0.163,10.136,5.700,6.000,39.000,-1.086,2.523,-0.094
2019-05-26-02:25:34.212825,0.297,-0.175,10.110,4.700,5.400,22.000,-1.164,2.672,-0.117
2019-05-26-02:25:34.322823,0.304,-0.215,10.124,10.700,1.200,12.400,-0.578,2.820,-0.227
2019-05-26-02:25:34.432575,0.290,-0.194,10.134,19.700,-4.100,10.400,-1.258,2.859,0.016
2019-05-26-02:25:34.542197,0.287,-0.182,10.131,22.600,-6.600,18.100,-0.797,2.742,-0.203
2019-05-26-02:25:34.652001,0.294,-0.182,10.124,20.300,-7.800,22.300,-0.875,2.586,-0.023
2019-05-26-02:25:34.761910,0.309,-0.182,10.098,17.000,-7.700,23.400,-0.992,2.609,-0.117
2019-05-26-02:25:34.871837,0.294,-0.175,10.141,16.200,-7.500,21.800,-0.797,2.766,-0.234
2019-05-26-02:25:34.981641,0.297,-0.182,10.136,17.600,-7.400,22.600,-1.336,2.797,-0.234
2019-05-26-02:25:35.091486,0.292,-0.194,10.126,16.800,-7.200,20.600,-0.750,2.539,0.016
2019-05-26-02:25:35.201498,0.301,-0.206,10.138,16.700,-6.400,21.800,-1.258,2.641,0.062
2019-05-26-02:25:35.311391,0.304,-0.187,10.138,17.000,-6.800,23.700,-1.305,2.625,-0.234
2019-05-26-02:25:35.421118,0.297,-0.182,10.126,16.400,-6.800,22.100,-0.820,2.867,-0.102
2019-05-26-02:25:35.530730,0.301,-0.187,10.122,17.000,-7.400,21.900,-1.133,2.477,-0.094
2019-05-26-02:25:35.640497,0.304,-0.191,10.126,17.100,-7.200,22.000,-1.094,2.445,0.102
2019-05-26-02:25:35.752301,0.290,-0.194,10.150,16.400,-7.300,22.800,-1.133,2.914,-0.141
2019-05-26-02:25:35.861960,0.299,-0.179,10.117,17.400,-7.200,22.800,-1.422,2.867,-0.211
2019-05-26-02:25:35.971933,0.318,-0.189,10.117,16.700,-6.800,21.600,-1.227,2.992,0.008
2019-05-26-02:25:36.081754,0.306,-0.189,10.110,17.200,-7.300,21.900,-0.750,2.891,-0.227
2019-05-26-02:25:36.191504,0.294,-0.189,10.112,17.100,-7.400,22.100,-1.188,2.719,-0.250
2019-05-26-02:25:36.301219,0.299,-0.199,10.122,16.900,-7.900,22.700,-1.086,2.906,-0.023
2019-05-26-02:25:36.411292,0.294,-0.182,10.129,17.000,-7.000,22.300,-1.398,2.734,-0.227
2019-05-26-02:25:36.521025,0.301,-0.177,10.122,16.300,-6.800,22.100,-1.352,2.711,-0.164
2019-05-26-02:25:36.630799,0.306,-0.189,10.131,16.700,-8.200,21.400,-0.852,2.883,-0.008
2019-05-26-02:25:36.740545,0.306,-0.184,10.114,17.800,-7.600,23.300,-0.820,2.609,-0.055
2019-05-26-02:25:36.850185,0.292,-0.189,10.124,16.400,-6.700,21.900,-1.234,2.797,-0.234
2019-05-26-02:25:36.960124,0.297,-0.191,10.117,16.400,-8.100,22.400,-1.234,2.891,0.008
2019-05-26-02:25:37.069848,0.304,-0.177,10.138,17.100,-7.200,21.600,-1.211,2.758,-0.164
2019-05-26-02:25:37.179764,0.297,-0.184,10.122,17.600,-7.900,20.900,-1.258,2.648,-0.055
2019-05-26-02:25:37.289662,0.292,-0.184,10.114,17.500,-6.200,21.300,-0.602,2.719,-0.023
2019-05-26-02:25:37.399409,0.294,-0.175,10.098,17.300,-7.300,21.900,-1.094,2.766,-0.055
2019-05-26-02:25:37.509029,0.294,-0.177,10.129,16.500,-7.600,20.400,-0.727,2.805,-0.148
2019-05-26-02:25:37.618920,0.294,-0.194,10.131,17.700,-7.800,20.900,-1.047,2.797,-0.031
2019-05-26-02:25:37.728755,0.290,-0.191,10.122,16.600,-7.900,24.000,-0.984,2.992,-0.117
2019-05-26-02:25:37.838562,0.297,-0.191,10.114,17.100,-7.100,21.900,-0.703,2.992,-0.180
2019-05-26-02:25:37.948295,0.297,-0.199,10.114,16.600,-7.300,22.700,-1.203,2.562,-0.055
2019-05-26-02:25:38.058033,0.306,-0.175,10.141,17.000,-7.700,20.800,-1.055,2.648,0.219
2019-05-26-02:25:38.171675,0.311,-0.191,10.107,16.400,-7.700,22.000,-0.914,2.766,-0.227
2019-05-26-02:25:38.281372,0.304,-0.184,10.112,17.700,-7.300,22.100,-0.719,2.852,-0.148
2019-05-26-02:25:38.391429,0.306,-0.194,10.131,16.900,-7.200,21.200,-1.305,2.766,-0.102
2019-05-26-02:25:38.501171,0.311,-0.191,10.117,16.700,-8.000,21.600,-1.117,2.781,-0.328
2019-05-26-02:25:38.611100,0.304,-0.184,10.122,16.300,-6.100,22.500,-0.961,2.852,-0.180
2019-05-26-02:25:38.720796,0.309,-0.182,10.107,17.200,-7.500,22.500,-1.180,2.828,-0.031
2019-05-26-02:25:38.830685,0.297,-0.187,10.110,17.700,-6.000,21.300,-0.984,2.742,-0.281
2019-05-26-02:25:38.940390,0.292,-0.191,10.114,17.000,-6.900,21.900,-0.836,2.797,0.039
2019-05-26-02:25:39.050126,0.311,-0.187,10.131,17.900,-7.200,21.300,-0.922,2.727,0.109
2019-05-26-02:25:39.159863,0.299,-0.211,10.126,17.100,-6.900,23.600,-0.969,2.734,0.039
2019-05-26-02:25:39.269571,0.301,-0.182,10.122,18.500,-6.800,21.400,-1.070,2.695,-0.094
2019-05-26-02:25:39.379304,0.304,-0.191,10.107,17.300,-8.000,21.700,-1.094,2.953,-0.188
2019-05-26-02:25:39.488930,0.299,-0.179,10.138,16.400,-6.800,21.200,-0.938,2.711,0.008
2019-05-26-02:25:39.598819,0.311,-0.179,10.131,17.400,-6.900,21.100,-0.922,2.758,-0.281
2019-05-26-02:25:39.708549,0.299,-0.177,10.117,17.700,-6.500,21.800,-1.203,2.609,-0.227
2019-05-26-02:25:39.818383,0.299,-0.196,10.114,16.400,-8.000,23.500,-0.781,2.758,0.008
2019-05-26-02:25:39.928273,0.301,-0.179,10.119,16.800,-7.300,21.700,-1.188,2.781,-0.148
2019-05-26-02:25:40.038261,0.285,-0.172,10.114,16.000,-8.200,22.300,-1.070,2.648,-0.008
2019-05-26-02:25:40.148072,0.304,-0.182,10.112,16.200,-7.600,22.100,-1.227,2.758,-0.094
2019-05-26-02:25:40.257777,0.294,-0.191,10.112,16.800,-7.700,20.600,-1.062,2.656,-0.164
2019-05-26-02:25:40.367406,0.297,-0.177,10.129,17.500,-7.900,20.200,-1.164,2.805,-0.203
2019-05-26-02:25:40.477153,0.306,-0.199,10.129,16.400,-6.200,20.500,-0.984,2.742,-0.117
2019-05-26-02:25:40.586891,0.304,-0.175,10.110,16.400,-6.400,22.300,-0.805,2.656,0.008
2019-05-26-02:25:40.696646,0.304,-0.187,10.114,16.600,-7.300,22.300,-0.766,2.828,-0.273
2019-05-26-02:25:40.806695,0.299,-0.184,10.124,17.100,-6.700,20.300,-0.648,2.672,-0.281
2019-05-26-02:25:40.916569,0.294,-0.179,10.126,17.200,-7.600,21.800,-1.312,2.930,-0.148
2019-05-26-02:25:41.026293,0.297,-0.194,10.131,16.500,-8.400,22.000,-0.758,2.758,0.125
2019-05-26-02:25:41.136073,0.304,-0.177,10.122,17.200,-7.300,19.400,-1.211,2.742,-0.008
2019-05-26-02:25:41.246083,0.297,-0.187,10.122,17.900,-7.100,20.100,-1.266,2.977,-0.148
2019-05-26-02:25:41.355780,0.292,-0.187,10.105,17.100,-7.200,22.200,-0.875,2.672,-0.188
2019-05-26-02:25:41.465399,0.294,-0.184,10.134,16.300,-8.300,21.600,-1.039,2.781,-0.070
2019-05-26-02:25:41.575010,0.297,-0.175,10.134,17.400,-7.300,20.800,-0.867,2.680,-0.070
2019-05-26-02:25:41.684836,0.294,-0.211,10.114,16.900,-6.700,21.700,-0.945,2.820,-0.078
2019-05-26-02:25:41.794463,0.309,-0.163,10.129,16.600,-8.100,21.900,-1.164,2.812,0.031
2019-05-26-02:25:41.904251,0.294,-0.194,10.105,16.900,-8.200,22.200,-0.781,2.820,-0.141
2019-05-26-02:25:42.014163,0.304,-0.179,10.126,16.400,-6.400,22.300,-0.742,2.586,-0.055
2019-05-26-02:25:42.124015,0.309,-0.187,10.129,18.000,-7.400,22.400,-0.906,2.688,0.078
2019-05-26-02:25:42.233737,0.297,-0.203,10.117,16.500,-8.100,22.100,-0.922,2.859,0.109
2019-05-26-02:25:42.343818,0.311,-0.182,10.124,16.900,-6.700,21.300,-0.750,2.820,-0.070
2019-05-26-02:25:42.454553,0.304,-0.184,10.131,16.000,-8.000,20.400,-1.375,2.969,-0.258
2019-05-26-02:25:42.564664,0.304,-0.194,10.134,17.000,-6.500,21.300,-0.898,2.828,-0.211
2019-05-26-02:25:42.674613,0.309,-0.194,10.102,16.500,-7.600,22.700,-0.859,2.844,0.133
2019-05-26-02:25:42.784294,0.309,-0.199,10.119,17.100,-7.100,21.400,-1.164,2.805,-0.102
2019-05-26-02:25:42.893944,0.304,-0.196,10.117,17.100,-7.500,21.600,-1.492,2.695,-0.047
2019-05-26-02:25:43.003645,0.297,-0.201,10.131,16.800,-8.000,21.900,-0.844,2.648,-0.281
2019-05-26-02:25:43.113447,0.301,-0.189,10.141,17.300,-6.800,20.000,-1.398,2.570,-0.211
2019-05-26-02:25:43.229472,0.306,-0.179,10.100,16.600,-7.000,19.800,-1.008,2.867,-0.078
2019-05-26-02:25:43.339314,0.301,-0.172,10.119,16.700,-7.200,21.200,-1.406,2.555,0.062
2019-05-26-02:25:43.448975,0.294,-0.196,10.114,17.800,-7.500,21.900,-1.320,3.109,-0.234
2019-05-26-02:25:43.558870,0.299,-0.163,10.129,18.200,-7.600,21.000,-0.719,2.992,-0.102
2019-05-26-02:25:43.668729,0.299,-0.163,10.124,17.400,-7.900,20.200,-1.062,2.648,-0.078
2019-05-26-02:25:43.778481,0.313,-0.189,10.117,16.600,-7.600,23.000,-1.320,2.648,0.031
2019-05-26-02:25:43.888227,0.294,-0.208,10.107,17.400,-7.500,22.100,-1.023,2.844,-0.227
2019-05-26-02:25:43.998172,0.297,-0.179,10.124,16.600,-6.600,21.300,-0.680,2.336,-0.117
2019-05-26-02:25:44.110137,0.304,-0.179,10.119,16.700,-8.600,21.900,-0.609,2.758,-0.023
2019-05-26-02:25:44.219884,0.306,-0.187,10.134,17.300,-8.000,21.800,-1.250,2.969,-0.141
2019-05-26-02:25:44.329578,0.301,-0.167,10.141,17.300,-7.300,21.200,-1.289,2.656,-0.102
2019-05-26-02:25:44.439595,0.297,-0.191,10.129,17.000,-7.900,21.700,-1.422,2.625,-0.203
2019-05-26-02:25:44.549370,0.301,-0.196,10.126,17.400,-8.500,22.200,-1.289,2.469,-0.094
2019-05-26-02:25:44.659220,0.301,-0.191,10.124,16.900,-7.900,21.100,-0.938,2.734,0.031
2019-05-26-02:25:44.769258,0.309,-0.184,10.117,17.300,-7.400,22.500,-1.117,2.758,-0.055
2019-05-26-02:25:44.879136,0.299,-0.179,10.102,17.600,-8.100,23.000,-0.805,2.570,-0.047
2019-05-26-02:25:44.988976,0.299,-0.184,10.143,17.200,-9.300,20.900,-0.750,2.734,0.008
2019-05-26-02:25:45.098759,0.301,-0.189,10.122,16.400,-7.400,23.100,-0.781,2.586,0.078
2019-05-26-02:25:45.208462,0.297,-0.182,10.098,16.700,-7.800,22.000,-1.250,2.938,-0.383
2019-05-26-02:25:45.318141,0.301,-0.189,10.119,17.300,-6.800,21.600,-1.117,2.633,-0.305
2019-05-26-02:25:45.427728,0.311,-0.175,10.126,17.500,-8.200,23.100,-1.000,2.727,-0.047
2019-05-26-02:25:45.537263,0.301,-0.177,10.131,17.200,-8.500,21.800,-0.812,2.812,0.016
2019-05-26-02:25:45.647316,0.294,-0.182,10.112,17.500,-7.400,22.800,-1.141,2.758,-0.125
2019-05-26-02:25:45.757088,0.321,-0.172,10.117,16.000,-6.800,22.100,-1.117,2.711,-0.055
2019-05-26-02:25:45.866711,0.299,-0.179,10.112,16.900,-8.100,21.400,-0.633,2.773,0.148
2019-05-26-02:25:45.976811,0.299,-0.182,10.126,16.900,-7.700,22.000,-0.656,2.852,-0.367
2019-05-26-02:25:46.086668,0.297,-0.187,10.114,17.900,-9.200,22.500,-1.141,2.625,-0.102
2019-05-26-02:25:46.196449,0.304,-0.191,10.136,15.900,-8.200,21.300,-1.039,2.820,-0.125
2019-05-26-02:25:46.306129,0.299,-0.189,10.124,17.400,-8.000,22.700,-1.070,2.547,-0.047
2019-05-26-02:25:46.415750,0.299,-0.182,10.124,17.500,-7.900,21.300,-0.781,2.859,-0.031
2019-05-26-02:25:46.525327,0.313,-0.170,10.124,17.400,-6.800,22.200,-0.773,2.688,-0.070
2019-05-26-02:25:46.635058,0.297,-0.177,10.110,16.400,-7.600,23.600,-1.180,2.758,-0.148
2019-05-26-02:25:46.744880,0.304,-0.184,10.105,17.100,-6.300,22.600,-1.070,2.758,-0.148
2019-05-26-02:25:46.854867,0.301,-0.182,10.114,16.600,-7.800,21.800,-0.852,2.570,-0.164
2019-05-26-02:25:46.964719,0.306,-0.179,10.117,16.200,-7.600,22.200,-0.750,2.734,-0.031
2019-05-26-02:25:47.074499,0.299,-0.179,10.126,16.400,-6.900,23.100,-1.039,2.688,0.062
2019-05-26-02:25:47.184423,0.294,-0.182,10.124,16.900,-6.800,23.700,-0.844,2.672,-0.070
2019-05-26-02:25:47.294126,0.304,-0.175,10.122,16.200,-6.700,23.000,-1.398,2.742,-0.148
2019-05-26-02:25:47.403752,0.306,-0.172,10.136,16.200,-8.400,21.500,-0.703,2.602,0.188
2019-05-26-02:25:47.513352,0.309,-0.189,10.110,16.500,-7.700,21.700,-1.039,2.719,-0.117
2019-05-26-02:25:47.623150,0.297,-0.187,10.122,15.600,-6.800,23.100,-0.750,2.602,-0.125
2019-05-26-02:25:47.732963,0.292,-0.191,10.119,17.000,-8.400,20.000,-1.156,2.609,-0.211
2019-05-26-02:25:47.842612,0.292,-0.167,10.110,16.600,-6.900,22.400,-0.727,2.680,-0.125
2019-05-26-02:25:47.952267,0.299,-0.182,10.119,16.700,-7.400,20.700,-1.031,3.164,0.008
2019-05-26-02:25:48.062210,0.311,-0.184,10.095,16.800,-6.200,24.400,-1.516,2.617,0.172
2019-05-26-02:25:48.171987,0.309,-0.184,10.124,16.500,-6.700,21.800,-1.250,2.820,-0.023
2019-05-26-02:25:48.286074,0.304,-0.184,10.129,16.100,-7.600,22.700,-1.062,2.672,-0.031
2019-05-26-02:25:48.396084,0.299,-0.194,10.110,16.600,-7.500,22.100,-0.695,2.680,-0.094
2019-05-26-02:25:48.505758,0.290,-0.187,10.126,17.700,-7.800,23.600,-0.852,2.719,-0.031
2019-05-26-02:25:48.615503,0.306,-0.184,10.110,17.100,-7.200,21.300,-0.867,2.797,-0.102
2019-05-26-02:25:48.725189,0.304,-0.182,10.124,16.100,-7.300,20.500,-1.031,2.797,0.062
2019-05-26-02:25:48.834946,0.306,-0.191,10.114,16.800,-7.500,22.500,-0.781,2.789,0.086
2019-05-26-02:25:48.944651,0.311,-0.194,10.141,17.700,-7.200,22.700,-0.648,2.586,-0.070
2019-05-26-02:25:49.054343,0.287,-0.187,10.134,16.700,-6.800,22.700,-1.031,2.820,0.062
2019-05-26-02:25:49.164755,0.313,-0.177,10.117,16.500,-7.900,21.500,-0.875,2.828,-0.070
2019-05-26-02:25:49.274620,0.285,-0.191,10.129,18.000,-7.800,21.400,-0.781,2.758,-0.148
2019-05-26-02:25:49.384255,0.306,-0.208,10.126,17.000,-7.500,21.600,-0.633,2.711,-0.188
2019-05-26-02:25:49.493866,0.301,-0.175,10.134,16.800,-6.800,21.400,-0.992,2.570,-0.227
2019-05-26-02:25:49.603859,0.301,-0.191,10.136,16.700,-7.700,22.300,-1.086,2.609,-0.188
2019-05-26-02:25:49.713605,0.309,-0.182,10.117,18.100,-8.300,20.600,-1.266,2.797,0.008
2019-05-26-02:25:49.823354,0.304,-0.191,10.119,17.400,-8.300,21.800,-1.094,2.562,0.031
2019-05-26-02:25:49.933205,0.294,-0.194,10.112,16.300,-7.500,20.900,-0.531,2.797,-0.070
2019-05-26-02:25:50.043173,0.287,-0.206,10.110,17.200,-9.100,22.300,-1.047,2.711,0.055
2019-05-26-02:25:50.153020,0.306,-0.172,10.129,16.400,-8.100,22.100,-0.961,2.891,-0.094
2019-05-26-02:25:50.262842,0.297,-0.191,10.119,17.200,-7.400,23.500,-0.945,2.555,0.039
2019-05-26-02:25:50.372925,0.299,-0.167,10.114,16.700,-8.000,21.800,-1.383,2.672,-0.273
2019-05-26-02:25:50.482932,0.304,-0.184,10.110,16.500,-8.100,22.100,-0.586,2.930,-0.031
2019-05-26-02:25:50.592793,0.313,-0.196,10.117,16.100,-7.700,22.000,-0.820,2.734,-0.234
2019-05-26-02:25:50.702524,0.301,-0.189,10.126,16.500,-6.300,21.500,-1.188,2.680,0.008
2019-05-26-02:25:50.812536,0.309,-0.194,10.134,17.500,-7.500,22.300,-0.609,2.695,-0.070
2019-05-26-02:25:50.922215,0.292,-0.187,10.148,16.400,-8.000,20.300,-1.094,2.719,-0.305
2019-05-26-02:25:51.031894,0.299,-0.201,10.119,17.700,-8.400,21.600,-1.008,2.805,-0.070
2019-05-26-02:25:51.141642,0.304,-0.177,10.136,16.800,-7.600,21.300,-0.961,2.805,-0.125
2019-05-26-02:25:51.251606,0.306,-0.189,10.141,16.500,-7.100,21.700,-0.961,2.906,-0.188
2019-05-26-02:25:51.361449,0.294,-0.191,10.095,16.500,-8.100,22.600,-1.305,2.523,-0.070
2019-05-26-02:25:51.471178,0.304,-0.189,10.117,16.300,-7.400,22.000,-1.141,2.711,-0.188
2019-05-26-02:25:51.581162,0.297,-0.191,10.122,16.300,-8.400,21.900,-1.039,2.547,-0.258
2019-05-26-02:25:51.691034,0.297,-0.187,10.107,17.600,-7.500,22.000,-1.094,2.867,-0.188
2019-05-26-02:25:51.800720,0.306,-0.184,10.107,16.300,-8.000,22.200,-0.938,2.648,-0.094
2019-05-26-02:25:51.910363,0.299,-0.187,10.119,16.400,-6.400,21.900,-1.289,3.023,-0.359
2019-05-26-02:25:52.020304,0.299,-0.179,10.129,15.400,-8.000,22.200,-0.922,2.914,-0.227
2019-05-26-02:25:52.130096,0.301,-0.177,10.117,16.100,-8.000,22.900,-1.031,2.555,0.109
2019-05-26-02:25:52.239811,0.294,-0.201,10.126,17.300,-8.200,22.400,-0.969,2.508,-0.344
2019-05-26-02:25:52.349612,0.294,-0.182,10.131,16.000,-7.200,22.600,-1.086,2.633,-0.078
2019-05-26-02:25:52.459307,0.301,-0.199,10.117,17.400,-8.000,21.600,-0.992,2.758,-0.344
2019-05-26-02:25:52.570946,0.313,-0.196,10.129,16.500,-7.000,21.300,-1.312,3.016,-0.164
2019-05-26-02:25:52.680666,0.323,-0.206,10.124,17.300,-7.100,21.800,-0.750,2.734,-0.125
2019-05-26-02:25:52.790601,0.306,-0.184,10.124,17.300,-8.000,21.200,-0.961,2.797,-0.055
2019-05-26-02:25:52.900399,0.290,-0.175,10.117,17.300,-6.800,21.700,-1.070,2.883,-0.188
2019-05-26-02:25:53.010129,0.304,-0.177,10.091,16.900,-7.200,22.500,-1.047,2.781,-0.125
2019-05-26-02:25:53.119899,0.290,-0.179,10.141,17.800,-7.100,22.500,-1.141,2.828,-0.211
2019-05-26-02:25:53.229906,0.304,-0.179,10.129,16.900,-7.300,21.700,-1.172,2.625,0.039
2019-05-26-02:25:53.343445,0.304,-0.175,10.122,18.000,-7.100,21.100,-0.891,2.477,-0.320
2019-05-26-02:25:53.453176,0.309,-0.191,10.126,16.900,-8.100,20.800,-1.023,2.805,-0.094
2019-05-26-02:25:53.562864,0.306,-0.191,10.124,16.500,-7.500,22.500,-0.875,2.812,0.211
2019-05-26-02:25:53.672559,0.301,-0.199,10.124,16.300,-6.300,22.200,-0.969,2.906,-0.047
2019-05-26-02:25:53.782184,0.299,-0.187,10.114,16.300,-7.900,23.300,-1.047,2.656,-0.094
2019-05-26-02:25:53.891793,0.301,-0.187,10.134,17.300,-7.800,21.300,-0.898,2.938,-0.055
2019-05-26-02:25:54.001896,0.297,-0.167,10.124,17.200,-6.700,21.700,-0.562,2.711,-0.227
2019-05-26-02:25:54.111725,0.311,-0.182,10.117,17.600,-7.200,21.700,-1.188,2.969,-0.180
2019-05-26-02:25:54.221424,0.306,-0.187,10.143,17.200,-7.200,21.900,-1.109,2.719,-0.359
2019-05-26-02:25:54.331169,0.304,-0.189,10.141,15.900,-7.500,21.600,-1.195,2.648,0.031
2019-05-26-02:25:54.441245,0.311,-0.182,10.114,17.700,-6.800,21.500,-0.750,2.781,-0.203
2019-05-26-02:25:54.550951,0.301,-0.187,10.119,17.500,-7.000,20.700,-0.938,2.672,-0.070
2019-05-26-02:25:54.660732,0.292,-0.184,10.117,16.700,-7.400,21.300,-1.227,2.867,-0.047
2019-05-26-02:25:54.770400,0.306,-0.189,10.124,16.800,-6.700,22.200,-0.797,2.625,-0.234
2019-05-26-02:25:54.880036,0.290,-0.199,10.146,17.600,-7.900,21.600,-0.891,2.477,-0.211
2019-05-26-02:25:54.989920,0.304,-0.177,10.102,17.000,-7.200,22.600,-0.828,2.719,-0.125
2019-05-26-02:25:55.099722,0.299,-0.175,10.119,16.800,-7.300,21.300,-0.266,2.844,-0.180
2019-05-26-02:25:55.209737,0.309,-0.170,10.126,16.900,-7.700,21.600,-1.016,2.539,-0.094
2019-05-26-02:25:55.319549,0.304,-0.199,10.131,16.300,-7.000,22.900,-1.156,2.656,-0.211
2019-05-26-02:25:55.429270,0.304,-0.184,10.114,15.500,-7.800,22.500,-0.500,2.977,-0.102
2019-05-26-02:25:55.538943,0.301,-0.194,10.129,16.200,-7.700,21.400,-1.062,2.609,-0.148
2019-05-26-02:25:55.648915,0.304,-0.187,10.131,17.200,-8.000,22.700,-1.414,2.477,0.188
2019-05-26-02:25:55.758937,0.313,-0.189,10.131,16.800,-7.600,21.500,-0.922,2.734,0.031
2019-05-26-02:25:55.868765,0.299,-0.189,10.105,15.600,-8.700,23.400,-0.961,2.633,-0.070
2019-05-26-02:25:55.978514,0.301,-0.179,10.126,16.200,-7.800,22.200,-0.969,2.312,-0.125
2019-05-26-02:25:56.088272,0.301,-0.201,10.100,16.300,-8.200,21.400,-0.969,2.789,0.078
2019-05-26-02:25:56.197950,0.299,-0.179,10.119,17.100,-8.000,22.500,-0.727,2.758,-0.023
2019-05-26-02:25:56.307774,0.301,-0.182,10.124,17.000,-7.000,20.900,-0.961,2.695,-0.070
2019-05-26-02:25:56.417705,0.299,-0.182,10.134,16.400,-6.300,23.000,-1.000,2.883,0.039
2019-05-26-02:25:56.527359,0.299,-0.177,10.131,17.000,-8.000,21.000,-0.609,2.648,0.016
2019-05-26-02:25:56.637165,0.316,-0.170,10.117,16.100,-8.200,21.700,-0.680,2.586,-0.305
2019-05-26-02:25:56.746953,0.297,-0.184,10.107,16.400,-7.900,22.300,-1.047,2.883,0.039
2019-05-26-02:25:56.857056,0.297,-0.182,10.129,16.700,-7.700,20.500,-0.680,2.602,0.062
2019-05-26-02:25:56.966764,0.313,-0.175,10.126,16.000,-8.300,22.100,-0.852,2.742,-0.203
2019-05-26-02:25:57.076550,0.299,-0.184,10.119,15.900,-8.000,21.200,-0.781,2.688,0.055
2019-05-26-02:25:57.186357,0.297,-0.177,10.129,16.600,-7.300,22.600,-0.766,2.797,0.008
2019-05-26-02:25:57.296024,0.294,-0.194,10.112,16.700,-7.100,21.700,-0.719,2.781,-0.250
2019-05-26-02:25:57.405635,0.311,-0.179,10.129,17.400,-7.600,22.200,-1.023,2.680,-0.031
2019-05-26-02:25:57.515274,0.304,-0.189,10.107,15.300,-8.000,22.500,-1.211,2.969,-0.148
2019-05-26-02:25:57.625259,0.318,-0.165,10.112,16.500,-8.200,21.900,-1.211,2.820,0.008
2019-05-26-02:25:57.735055,0.306,-0.177,10.114,16.600,-7.600,22.500,-0.695,2.586,-0.234
2019-05-26-02:25:57.845046,0.301,-0.194,10.117,17.500,-7.300,22.300,-0.477,2.695,-0.164
2019-05-26-02:25:57.954948,0.301,-0.191,10.119,17.700,-7.000,23.600,-1.336,2.625,0.109
2019-05-26-02:25:58.064989,0.299,-0.172,10.117,20.500,-6.400,20.800,-1.047,2.734,-0.148
2019-05-26-02:25:58.174826,0.299,-0.179,10.117,20.400,-1.300,16.100,-1.211,2.711,-0.078
2019-05-26-02:25:58.284624,0.311,-0.187,10.126,15.000,0.600,14.100,-0.805,2.609,-0.305
2019-05-26-02:25:58.399060,0.309,-0.196,10.124,10.000,2.300,14.900,-0.914,2.648,-0.055
2019-05-26-02:25:58.508746,0.290,-0.179,10.105,6.500,3.300,17.900,-0.945,2.570,-0.055
2019-05-26-02:25:58.618513,0.292,-0.187,10.126,3.800,6.100,23.200,-1.258,2.758,-0.320
2019-05-26-02:25:58.728194,0.290,-0.199,10.114,3.300,8.200,29.500,-1.016,2.930,-0.367
2019-05-26-02:25:58.838120,0.285,-0.177,10.129,0.300,9.600,35.400,-0.719,2.938,-0.117
2019-05-26-02:25:58.947835,0.313,-0.177,10.100,0.300,8.800,36.600,-0.609,2.719,-0.211
2019-05-26-02:25:59.057706,0.301,-0.184,10.124,1.100,7.200,41.900,-1.227,2.672,-0.258
2019-05-26-02:25:59.167655,0.304,-0.187,10.107,3.100,5.000,44.100,-0.914,2.805,-0.227
2019-05-26-02:25:59.277639,0.306,-0.196,10.112,4.000,3.200,45.000,-1.102,2.922,0.062
2019-05-26-02:25:59.387310,0.280,-0.187,10.122,4.100,1.900,44.300,-1.062,2.938,-0.188
2019-05-26-02:25:59.497577,0.294,-0.191,10.114,3.600,2.600,45.900,-1.102,2.750,0.102
2019-05-26-02:25:59.607490,0.306,-0.184,10.117,3.000,3.700,46.200,-0.680,3.016,-0.055
2019-05-26-02:25:59.717259,0.313,-0.189,10.131,2.500,3.300,50.300,-0.969,2.711,-0.148
2019-05-26-02:25:59.826955,0.299,-0.177,10.110,3.100,3.600,54.000,-1.094,2.875,0.125
2019-05-26-02:25:59.936910,0.301,-0.184,10.138,3.200,4.500,54.600,-1.117,2.734,0.016
2019-05-26-02:26:00.046955,0.304,-0.199,10.119,4.400,2.800,55.500,-0.766,2.844,-0.102
2019-05-26-02:26:00.156756,0.179,-0.067,9.509,6.200,0.700,56.400,-1.016,2.844,0.133
2019-05-26-02:26:00.266639,0.292,-0.115,10.179,4.500,1.500,57.500,-0.719,2.766,-0.102
2019-05-26-02:26:00.376291,0.309,-0.160,10.131,4.400,2.200,58.900,-0.828,2.758,0.188
2019-05-26-02:26:00.486264,0.301,-0.179,10.098,3.100,2.800,60.200,-1.234,2.672,-0.273
2019-05-26-02:26:00.596000,0.299,-0.201,10.129,2.500,1.800,61.500,-0.562,2.844,-0.180
2019-05-26-02:26:00.705696,0.301,-0.191,10.117,3.600,2.600,60.600,-0.875,2.781,-0.180
2019-05-26-02:26:00.815323,0.304,-0.153,10.122,2.600,3.000,59.700,-0.523,2.398,-0.320
2019-05-26-02:26:00.927086,0.309,-0.196,10.162,1.900,2.700,59.900,-0.305,2.727,0.039
2019-05-26-02:26:01.036908,0.301,-0.191,10.138,2.100,2.500,60.100,-1.094,2.633,-0.047
2019-05-26-02:26:01.146771,0.292,-0.199,10.129,3.600,2.800,61.800,-0.922,2.586,-0.102
2019-05-26-02:26:01.256817,0.297,-0.177,10.122,3.100,2.700,59.600,-1.359,2.570,-0.164
2019-05-26-02:26:01.366552,0.313,-0.167,10.138,2.800,2.200,61.300,-0.867,2.797,-0.102
2019-05-26-02:26:01.476169,0.304,-0.189,10.122,3.200,2.400,61.200,-1.070,2.625,0.016
2019-05-26-02:26:01.585926,0.294,-0.196,10.143,2.400,2.100,60.900,-1.039,2.781,-0.023
2019-05-26-02:26:01.696037,0.297,-0.177,10.110,2.400,3.000,59.600,-0.602,2.797,-0.047
2019-05-26-02:26:01.805736,0.299,-0.187,10.129,2.300,2.900,58.900,-1.047,2.609,-0.008
2019-05-26-02:26:01.915530,0.299,-0.184,10.136,1.600,2.800,60.800,-0.539,2.820,0.078
2019-05-26-02:26:02.025284,0.301,-0.189,10.129,2.400,2.300,59.800,-1.258,2.672,0.133
2019-05-26-02:26:02.135047,0.301,-0.167,10.112,2.400,2.100,60.300,-0.875,2.695,-0.023
2019-05-26-02:26:02.244902,0.290,-0.182,10.102,2.800,2.900,59.300,-0.883,2.406,0.062
2019-05-26-02:26:02.354663,0.297,-0.184,10.122,2.300,3.800,60.500,-0.945,2.719,-0.125
2019-05-26-02:26:02.464754,0.301,-0.189,10.126,3.200,2.500,59.600,-0.820,2.648,-0.305
2019-05-26-02:26:02.574456,0.294,-0.194,10.126,2.500,2.100,59.100,-0.867,2.656,-0.273
2019-05-26-02:26:02.684279,0.304,-0.189,10.107,3.500,3.100,60.100,-0.836,2.820,0.016
2019-05-26-02:26:02.797079,0.304,-0.194,10.107,2.600,2.200,59.700,-0.648,2.930,-0.281
2019-05-26-02:26:02.906739,0.301,-0.199,10.112,2.000,2.900,61.100,-0.836,2.922,0.031
2019-05-26-02:26:03.016511,0.294,-0.194,10.134,2.400,1.900,58.600,-0.891,2.570,-0.344
2019-05-26-02:26:03.126277,0.297,-0.191,10.102,1.900,2.500,59.400,-0.820,2.797,-0.102
2019-05-26-02:26:03.235961,0.299,-0.184,10.112,2.400,2.500,59.500,-1.195,2.961,0.039
2019-05-26-02:26:03.345637,0.280,-0.194,10.122,3.100,3.700,59.500,-1.086,2.781,-0.141
2019-05-26-02:26:03.459044,0.282,-0.189,10.112,1.500,2.700,59.900,-0.648,2.695,-0.211
2019-05-26-02:26:03.568675,0.299,-0.170,10.122,2.000,3.500,60.000,-1.109,2.453,-0.047
2019-05-26-02:26:03.678587,0.313,-0.179,10.124,2.200,3.500,59.800,-1.383,2.562,0.031
2019-05-26-02:26:03.788348,0.290,-0.177,10.138,2.000,3.100,62.000,-1.258,2.570,-0.078
2019-05-26-02:26:03.898003,0.290,-0.189,10.136,3.400,2.900,59.500,-0.867,2.797,-0.320
2019-05-26-02:26:04.007920,0.299,-0.191,10.126,3.100,1.800,60.000,-1.117,2.906,0.195
2019-05-26-02:26:04.117727,0.287,-0.177,10.124,2.600,2.100,61.400,-0.750,2.844,-0.078
2019-05-26-02:26:04.227576,0.292,-0.187,10.102,2.100,2.300,60.400,-1.062,2.781,-0.164
2019-05-26-02:26:04.337413,0.297,-0.187,10.131,3.000,1.300,61.200,-1.070,2.367,-0.164
2019-05-26-02:26:04.447157,0.304,-0.167,10.129,2.400,1.800,59.500,-0.891,2.781,-0.234
2019-05-26-02:26:04.556839,0.304,-0.184,10.136,2.800,3.200,60.900,-1.164,2.992,-0.234
2019-05-26-02:26:04.666643,0.301,-0.177,10.129,2.000,3.600,59.600,-1.008,2.508,-0.203
2019-05-26-02:26:04.776406,0.294,-0.179,10.131,2.200,3.500,60.300,-1.023,2.734,-0.141
2019-05-26-02:26:04.886334,0.304,-0.179,10.122,3.400,3.000,60.100,-0.922,3.000,-0.078
2019-05-26-02:26:04.996334,0.304,-0.170,10.136,1.700,2.600,60.700,-1.062,2.930,-0.258
2019-05-26-02:26:05.106085,0.292,-0.189,10.134,2.100,3.300,60.000,-0.750,2.914,-0.008
2019-05-26-02:26:05.216017,0.313,-0.189,10.098,2.800,3.400,60.800,-0.898,2.711,-0.102
2019-05-26-02:26:05.325756,0.301,-0.175,10.129,2.700,2.500,60.500,-0.656,2.680,-0.078
2019-05-26-02:26:05.435379,0.297,-0.187,10.126,1.800,3.500,60.200,-0.805,2.867,-0.250
2019-05-26-02:26:05.544978,0.299,-0.182,10.138,2.400,4.200,60.700,-0.781,2.852,-0.070
2019-05-26-02:26:05.654769,0.294,-0.189,10.126,2.500,2.200,60.200,-1.297,2.820,0.078
2019-05-26-02:26:05.764406,0.297,-0.196,10.119,2.200,3.100,59.400,-1.250,2.695,-0.227
2019-05-26-02:26:05.874065,0.294,-0.182,10.122,2.400,3.800,60.900,-0.461,2.953,-0.148
2019-05-26-02:26:05.983679,0.301,-0.177,10.117,2.500,2.800,60.300,-0.781,2.680,-0.070
2019-05-26-02:26:06.093682,0.301,-0.175,10.134,2.500,2.000,60.400,-0.961,2.938,-0.414
2019-05-26-02:26:06.203398,0.297,-0.184,10.129,2.800,3.400,61.100,-0.844,2.852,-0.211
2019-05-26-02:26:06.313148,0.304,-0.184,10.117,2.600,2.900,60.700,-1.117,2.500,-0.297
2019-05-26-02:26:06.423229,0.301,-0.189,10.122,2.800,2.300,60.100,-1.141,2.828,-0.031
2019-05-26-02:26:06.532963,0.301,-0.182,10.112,1.500,2.800,59.300,-0.828,2.680,-0.031
2019-05-26-02:26:06.642836,0.287,-0.194,10.129,2.500,3.100,59.600,-1.094,2.477,-0.117
2019-05-26-02:26:06.752528,0.297,-0.187,10.117,3.100,3.300,61.700,-0.531,2.820,-0.094
2019-05-26-02:26:06.862196,0.287,-0.184,10.131,3.100,2.300,59.600,-0.711,2.898,0.102
2019-05-26-02:26:06.971841,0.392,-0.096,9.909,2.200,2.700,58.700,-1.109,2.289,0.008
2019-05-26-02:26:07.081509,0.371,-0.096,10.174,3.200,2.200,60.800,-0.750,2.852,-0.148
2019-05-26-02:26:07.191418,0.385,0.589,9.050,2.700,3.000,60.100,0.797,5.195,0.445
2019-05-26-02:26:07.301420,0.541,-0.010,9.567,1.900,2.800,59.900,-1.336,2.984,0.016
2019-05-26-02:26:07.411163,0.005,-0.182,9.373,2.900,2.300,60.200,-0.766,3.117,0.109
2019-05-26-02:26:07.520791,0.251,-0.148,10.093,2.300,2.600,59.900,-0.852,2.781,-0.164
2019-05-26-02:26:07.630781,0.237,-0.201,10.040,2.300,2.700,61.200,-1.016,2.297,0.055
2019-05-26-02:26:07.740580,0.285,-0.227,10.131,2.500,2.500,60.500,-0.789,3.000,-0.211
2019-05-26-02:26:07.850294,0.268,-0.187,10.110,2.500,2.800,60.200,-1.289,2.820,-0.328
2019-05-26-02:26:07.960097,0.311,-0.098,10.155,1.700,2.400,60.900,-1.164,2.891,-0.102
2019-05-26-02:26:08.069830,0.290,-0.196,10.177,1.800,2.700,60.800,-0.805,2.758,-0.078
2019-05-26-02:26:08.179662,0.270,-0.172,10.129,1.600,2.500,59.700,-0.977,2.820,0.125
2019-05-26-02:26:08.289429,0.278,-0.170,10.134,1.600,1.600,60.400,-1.125,2.602,0.039
2019-05-26-02:26:08.399273,0.290,-0.163,10.131,3.000,1.800,60.700,-1.141,2.836,0.016
2019-05-26-02:26:08.515389,0.278,-0.242,9.904,1.900,2.400,60.400,-1.031,2.664,0.031
2019-05-26-02:26:08.625201,0.275,-0.153,10.131,2.500,2.500,60.200,-0.719,2.609,-0.102
2019-05-26-02:26:08.734973,0.268,-0.244,10.186,2.200,1.900,60.500,-0.695,2.539,-0.484
2019-05-26-02:26:08.845052,0.309,-0.256,10.136,3.800,1.900,59.800,-1.117,2.992,-0.117
2019-05-26-02:26:08.954945,0.299,-0.153,10.105,2.500,1.700,60.000,-1.188,2.516,0.031
2019-05-26-02:26:09.064751,0.294,-0.122,10.160,2.300,2.900,60.600,-1.406,2.492,0.016
2019-05-26-02:26:09.174511,0.098,0.313,10.253,2.100,3.100,60.600,-0.664,3.344,-0.242
2019-05-26-02:26:09.284437,0.258,-0.057,9.966,2.100,3.700,62.700,-1.281,2.969,-0.203
2019-05-26-02:26:09.396249,0.297,-0.208,10.119,1.200,3.200,61.800,-0.875,2.906,-0.273
2019-05-26-02:26:09.506009,0.311,-0.196,10.181,1.500,3.200,60.900,-0.516,3.078,-0.055
2019-05-26-02:26:09.617550,0.263,-0.175,9.973,1.400,2.400,62.100,-0.992,2.523,-0.211
2019-05-26-02:26:09.727328,0.278,-0.225,10.143,1.200,4.000,60.800,-1.070,2.375,-0.031
2019-05-26-02:26:09.837203,0.246,-0.124,10.100,0.900,3.300,62.500,-0.539,2.422,-0.141
2019-05-26-02:26:09.947294,0.287,-0.177,10.117,1.400,3.100,60.600,-1.227,2.867,-0.078
2019-05-26-02:26:10.057487,0.294,-0.163,10.091,0.800,3.500,60.400,-0.758,3.016,-0.227
2019-05-26-02:26:10.167289,0.311,-0.189,10.095,1.600,3.700,62.300,-0.906,3.023,-0.164
2019-05-26-02:26:10.277106,0.342,-0.151,10.126,1.300,4.600,62.500,-0.547,2.797,0.102
2019-05-26-02:26:10.386737,0.189,-0.160,10.105,1.300,3.600,62.600,-0.961,2.672,-0.188
2019-05-26-02:26:10.496400,0.263,-0.196,10.141,2.300,2.700,61.800,-0.594,2.703,0.195
2019-05-26-02:26:10.606025,0.301,-0.201,10.102,0.300,3.700,61.400,-1.086,2.680,-0.008
2019-05-26-02:26:10.715704,0.278,-0.122,10.105,1.200,2.000,61.300,-1.227,2.844,-0.180
2019-05-26-02:26:10.825645,0.294,-0.182,10.112,-0.200,3.300,63.400,-0.891,2.844,-0.125
2019-05-26-02:26:10.935445,0.285,-0.184,10.117,1.900,3.400,61.400,-1.031,2.758,0.125
2019-05-26-02:26:11.045257,0.309,-0.179,10.110,1.300,2.700,62.400,-1.227,2.672,-0.211
2019-05-26-02:26:11.155010,0.254,-0.175,10.126,2.200,3.500,61.700,-1.227,2.992,-0.180
2019-05-26-02:26:11.265118,0.287,-0.165,10.102,0.800,3.300,62.200,-1.023,2.930,-0.055
2019-05-26-02:26:11.374852,0.282,-0.170,10.117,1.200,3.200,62.400,-0.852,2.969,-0.094
2019-05-26-02:26:11.484482,0.297,-0.170,10.117,0.900,3.700,62.300,-1.141,2.633,-0.227
2019-05-26-02:26:11.594135,0.282,-0.179,10.126,1.800,2.800,62.600,-1.258,2.805,-0.227
2019-05-26-02:26:11.703843,0.297,-0.179,10.136,1.000,3.700,62.900,-0.898,2.891,-0.102
2019-05-26-02:26:11.813468,0.290,-0.170,10.134,0.700,4.500,62.100,-0.969,2.570,-0.031
2019-05-26-02:26:11.923190,0.301,-0.189,10.112,1.600,3.300,61.900,-1.258,2.719,-0.078
2019-05-26-02:26:12.033314,0.273,-0.163,10.155,0.500,2.500,61.800,-0.828,2.766,-0.203
2019-05-26-02:26:12.143195,0.294,-0.165,10.131,1.100,4.300,63.400,-1.227,2.883,-0.094
2019-05-26-02:26:12.253060,0.306,-0.179,10.117,1.000,3.000,63.000,-1.336,2.453,-0.211
2019-05-26-02:26:12.362783,0.299,-0.167,10.114,0.800,3.800,63.100,-0.438,2.633,-0.391
2019-05-26-02:26:12.472852,0.290,-0.179,10.117,0.900,3.200,61.500,-0.969,2.594,-0.117
2019-05-26-02:26:12.582462,0.285,-0.182,10.117,1.000,3.700,62.500,-1.008,2.734,-0.125
2019-05-26-02:26:12.692218,0.285,-0.165,10.119,1.200,4.200,62.000,-1.250,2.734,-0.406
2019-05-26-02:26:12.801868,0.287,-0.163,10.129,1.400,2.200,62.000,-1.086,2.820,-0.008
2019-05-26-02:26:12.911472,0.292,-0.189,10.117,0.600,3.000,62.200,-1.125,2.617,0.062
2019-05-26-02:26:13.021388,0.306,-0.163,10.124,0.600,3.800,62.000,-0.828,2.898,0.016
2019-05-26-02:26:13.131265,0.287,-0.172,10.107,0.500,3.300,61.000,-1.141,2.742,-0.203
2019-05-26-02:26:13.241379,0.292,-0.177,10.105,0.900,2.500,61.300,-0.969,2.758,-0.070
2019-05-26-02:26:13.351197,0.287,-0.165,10.119,1.900,3.300,62.600,-1.547,2.609,-0.117
2019-05-26-02:26:13.460838,0.292,-0.160,10.126,1.700,3.100,60.600,-0.852,2.906,-0.164
2019-05-26-02:26:13.575142,0.282,-0.182,10.117,0.100,4.100,60.000,-0.922,2.891,-0.250
2019-05-26-02:26:13.685088,0.299,-0.189,10.117,0.700,3.700,62.700,-1.141,2.844,-0.320
2019-05-26-02:26:13.794861,0.290,-0.182,10.110,2.000,3.000,62.200,-1.281,2.672,-0.055
2019-05-26-02:26:13.904713,0.282,-0.194,10.114,0.900,3.200,61.500,-0.828,2.633,-0.031
2019-05-26-02:26:14.014458,0.282,-0.177,10.129,0.500,4.600,62.500,-0.648,2.820,-0.141
2019-05-26-02:26:14.124283,0.278,-0.184,10.124,1.200,3.400,62.600,-1.016,2.789,0.125
2019-05-26-02:26:14.234048,0.290,-0.187,10.129,0.900,3.500,61.000,-1.094,2.836,0.125
2019-05-26-02:26:14.343759,0.304,-0.172,10.131,1.200,3.600,62.000,-0.609,2.555,0.031
2019-05-26-02:26:14.453760,0.287,-0.177,10.134,0.700,3.600,62.300,-0.977,2.617,0.055
2019-05-26-02:26:14.563396,0.290,-0.184,10.134,0.600,3.400,62.100,-1.359,2.742,-0.148
2019-05-26-02:26:14.673231,0.278,-0.170,10.131,1.400,3.500,61.400,-1.188,2.539,0.086
2019-05-26-02:26:14.782953,0.280,-0.184,10.110,0.900,3.500,61.800,-1.008,2.656,-0.227
2019-05-26-02:26:14.893344,0.290,-0.175,10.112,1.400,3.200,61.600,-0.914,2.477,-0.070
2019-05-26-02:26:15.003560,0.292,-0.191,10.122,-0.500,4.000,62.700,-1.094,2.648,-0.141
2019-05-26-02:26:15.113338,0.297,-0.165,10.131,0.800,3.800,62.000,-1.109,2.562,-0.164
2019-05-26-02:26:15.223135,0.282,-0.165,10.136,0.900,3.500,62.700,-1.117,2.773,0.031
2019-05-26-02:26:15.332848,0.285,-0.167,10.124,0.200,4.300,60.600,-0.695,2.609,-0.234
2019-05-26-02:26:15.442432,0.270,-0.163,10.143,0.600,2.800,62.000,-1.227,2.758,-0.117
2019-05-26-02:26:15.552008,0.275,-0.172,10.129,1.100,3.700,60.700,-0.984,2.633,-0.047
2019-05-26-02:26:15.661996,0.285,-0.177,10.114,1.000,3.300,61.300,-1.211,2.766,-0.117
2019-05-26-02:26:15.771798,0.285,-0.170,10.112,0.700,3.800,61.700,-1.211,2.688,0.016
2019-05-26-02:26:15.881442,0.287,-0.177,10.112,0.600,3.900,61.800,-0.734,2.539,0.078
2019-05-26-02:26:15.991201,0.297,-0.184,10.126,0.600,4.100,62.200,-1.648,2.977,-0.070
2019-05-26-02:26:16.101221,0.290,-0.194,10.129,-0.200,4.300,62.800,-1.281,2.914,-0.055
2019-05-26-02:26:16.211080,0.280,-0.187,10.100,1.100,3.900,61.400,-1.336,2.797,-0.141
2019-05-26-02:26:16.320802,0.292,-0.187,10.131,-0.200,3.700,60.800,-1.430,2.883,-0.078
2019-05-26-02:26:16.430411,0.294,-0.179,10.110,0.700,2.900,61.300,-1.164,2.711,0.016
2019-05-26-02:26:16.540015,0.304,-0.189,10.124,-0.100,3.500,61.600,-0.953,2.883,0.172
2019-05-26-02:26:16.649728,0.290,-0.175,10.136,1.600,3.100,61.100,-0.945,2.680,-0.031
2019-05-26-02:26:16.759473,0.301,-0.170,10.117,1.100,4.400,62.600,-0.961,2.719,-0.023
2019-05-26-02:26:16.869476,0.287,-0.175,10.155,0.500,4.400,62.800,-0.992,2.906,-0.031
2019-05-26-02:26:16.979351,0.278,-0.172,10.107,1.600,3.700,62.700,-1.070,2.406,0.031
2019-05-26-02:26:17.089110,0.268,-0.175,10.134,0.600,3.400,61.600,-1.375,2.508,-0.250
2019-05-26-02:26:17.198878,0.294,-0.189,10.143,1.700,3.700,61.900,-0.594,2.625,0.078
2019-05-26-02:26:17.308905,0.278,-0.165,10.110,1.400,3.600,61.800,-1.188,2.758,-0.078
2019-05-26-02:26:17.418585,0.297,-0.175,10.129,1.400,3.800,61.200,-1.062,2.719,-0.258
2019-05-26-02:26:17.528172,0.299,-0.182,10.122,1.500,3.200,61.400,-0.852,2.805,-0.211
2019-05-26-02:26:17.637889,0.292,-0.175,10.119,0.900,3.800,61.900,-0.680,3.000,-0.203
2019-05-26-02:26:17.749795,0.285,-0.179,10.114,0.500,4.600,61.200,-0.562,2.781,-0.023
2019-05-26-02:26:17.859533,0.290,-0.189,10.100,0.600,3.100,61.100,-1.258,2.570,-0.008
2019-05-26-02:26:17.969265,0.287,-0.175,10.095,0.500,3.400,62.500,-0.711,2.602,0.031
2019-05-26-02:26:18.079282,0.275,-0.175,10.126,0.500,3.600,62.000,-1.141,2.867,-0.102
2019-05-26-02:26:18.189019,0.285,-0.096,10.112,0.200,2.900,61.800,-1.227,2.648,-0.250
2019-05-26-02:26:18.299957,0.316,-0.124,10.107,0.200,3.200,62.000,-1.445,2.883,-0.234
2019-05-26-02:26:18.409975,0.280,-0.110,10.129,0.600,4.300,62.000,-1.109,2.742,-0.055
2019-05-26-02:26:18.520028,0.278,-0.220,10.112,0.500,2.400,62.900,-0.648,2.609,-0.031
2019-05-26-02:26:18.633955,0.349,-0.242,10.131,1.600,2.700,61.700,-0.898,2.477,0.195
2019-05-26-02:26:18.743683,0.433,-0.203,10.122,-0.100,2.800,62.000,-0.648,2.906,-0.102
2019-05-26-02:26:18.853325,0.237,-0.148,10.102,0.900,3.400,62.600,-1.312,2.711,0.008
2019-05-26-02:26:18.963118,0.282,-0.144,10.122,1.000,3.800,60.600,-0.961,2.719,-0.164
2019-05-26-02:26:19.072931,0.211,-0.256,10.119,0.900,3.700,61.100,-1.305,2.539,-0.078
2019-05-26-02:26:19.182848,0.323,-0.105,9.909,1.000,3.300,61.900,-1.141,2.883,0.078
2019-05-26-02:26:19.292970,0.309,-0.189,10.141,0.800,3.500,61.900,-0.820,2.719,-0.203
2019-05-26-02:26:19.402664,0.301,-0.196,10.117,0.900,3.300,61.000,-1.070,2.672,-0.031
2019-05-26-02:26:19.512286,0.294,-0.182,10.141,1.100,4.100,61.100,-0.828,2.742,-0.359
2019-05-26-02:26:19.622070,0.297,-0.187,10.146,0.600,4.000,62.200,-1.023,2.766,-0.359
2019-05-26-02:26:19.732112,0.290,-0.184,10.114,0.900,3.100,61.900,-1.117,2.805,-0.227
2019-05-26-02:26:19.841809,0.299,-0.201,10.100,1.300,3.200,62.000,-1.180,2.906,-0.250
2019-05-26-02:26:19.951722,0.294,-0.191,10.124,1.000,4.200,60.900,-1.062,2.766,-0.164
2019-05-26-02:26:20.061471,0.294,-0.184,10.110,1.400,4.400,62.300,-0.945,2.828,-0.125
2019-05-26-02:26:20.171344,0.282,-0.177,10.117,2.700,3.900,62.100,-0.602,2.695,-0.125
2019-05-26-02:26:20.281146,0.294,-0.179,10.134,0.700,5.400,62.300,-0.703,2.734,0.086
2019-05-26-02:26:20.390818,0.294,-0.177,10.124,1.100,3.400,61.500,-1.258,2.828,-0.203
2019-05-26-02:26:20.500823,0.301,-0.172,10.114,1.100,4.400,62.100,-1.461,2.812,0.086
2019-05-26-02:26:20.610597,0.294,-0.187,10.122,1.300,2.900,62.100,-0.406,2.594,-0.250
2019-05-26-02:26:20.720301,0.299,-0.175,10.129,0.300,4.100,61.000,-0.844,2.883,-0.359
2019-05-26-02:26:20.830175,0.306,-0.189,10.098,1.100,3.800,62.200,-0.992,2.547,-0.047
2019-05-26-02:26:20.940141,0.306,-0.184,10.122,0.300,2.800,61.100,-0.828,2.711,-0.148
2019-05-26-02:26:21.049885,0.292,-0.175,10.122,1.500,3.900,62.100,-0.945,2.906,0.008
2019-05-26-02:26:21.159655,0.294,-0.182,10.134,0.500,4.700,61.400,-0.711,2.789,0.031
2019-05-26-02:26:21.269478,0.294,-0.189,10.105,0.400,3.800,62.900,-1.023,2.383,0.289
2019-05-26-02:26:21.379128,0.297,-0.170,10.141,1.000,4.000,61.900,-0.914,2.695,-0.078
2019-05-26-02:26:21.488817,0.297,-0.194,10.138,1.000,3.400,61.600,-1.039,2.914,-0.023
2019-05-26-02:26:21.598467,0.299,-0.170,10.129,1.400,4.000,62.900,-0.875,2.625,-0.008
2019-05-26-02:26:21.708495,0.297,-0.175,10.119,1.200,4.900,62.400,-0.992,2.867,0.008
2019-05-26-02:26:21.818183,0.301,-0.191,10.124,1.000,4.200,64.000,-0.969,2.852,-0.305
2019-05-26-02:26:21.927810,0.309,-0.184,10.114,2.300,3.800,61.900,-1.234,2.867,-0.148
2019-05-26-02:26:22.040832,0.301,-0.187,10.138,0.200,3.200,61.800,-0.984,2.805,-0.094
2019-05-26-02:26:22.150620,0.297,-0.177,10.129,1.100,3.900,62.700,-1.281,2.734,-0.227
2019-05-26-02:26:22.260508,0.299,-0.179,10.119,1.000,4.500,62.800,-1.164,2.648,-0.008
2019-05-26-02:26:22.370131,0.299,-0.187,10.107,1.000,4.700,62.400,-0.852,2.844,-0.117
2019-05-26-02:26:22.479772,0.309,-0.179,10.131,1.200,4.300,62.200,-1.039,2.805,-0.008
2019-05-26-02:26:22.589469,0.287,-0.187,10.124,0.700,4.500,62.600,-1.164,2.766,-0.055
2019-05-26-02:26:22.699298,0.287,-0.182,10.126,0.100,3.500,62.700,-0.734,3.078,0.031
2019-05-26-02:26:22.808953,0.292,-0.172,10.134,0.800,4.000,62.100,-0.672,2.586,-0.164
2019-05-26-02:26:22.918816,0.299,-0.194,10.107,1.400,3.400,61.300,-1.406,2.523,-0.305
2019-05-26-02:26:23.028598,0.294,-0.170,10.129,1.000,3.200,62.300,-0.719,2.906,-0.188
2019-05-26-02:26:23.138383,0.299,-0.172,10.105,1.400,3.600,61.000,-0.914,2.766,-0.203
2019-05-26-02:26:23.248322,0.297,-0.189,10.122,2.000,3.300,62.400,-0.812,2.625,0.016
2019-05-26-02:26:23.358060,0.306,-0.189,10.105,1.200,3.600,61.600,-0.922,2.953,-0.148
2019-05-26-02:26:23.467759,0.299,-0.165,10.126,1.800,3.100,61.400,-1.086,2.711,-0.180
2019-05-26-02:26:23.577354,0.294,-0.175,10.141,0.300,2.400,60.600,-1.211,2.742,-0.320
2019-05-26-02:26:23.691660,0.301,-0.182,10.122,0.600,4.000,61.500,-1.281,2.656,-0.281
2019-05-26-02:26:23.801317,0.297,-0.175,10.117,0.700,2.600,61.500,-0.750,2.781,-0.180
2019-05-26-02:26:23.910876,0.285,-0.182,10.114,0.600,2.400,61.700,-1.094,2.547,-0.055
2019-05-26-02:26:24.020525,0.179,-0.036,10.330,2.000,3.900,62.700,-0.797,2.141,-0.141
2019-05-26-02:26:24.130481,0.502,0.103,9.724,1.100,3.200,60.100,-1.914,3.508,-0.250
2019-05-26-02:26:24.240216,0.392,-0.203,9.937,1.500,3.900,62.300,-0.602,3.352,0.086
2019-05-26-02:26:24.349914,0.263,-0.203,10.083,1.100,4.200,62.000,-1.086,2.648,-0.023
2019-05-26-02:26:24.459837,0.196,-0.148,10.277,2.100,4.000,62.200,-1.336,2.789,0.188
2019-05-26-02:26:24.569576,0.187,-0.211,10.203,1.300,3.600,61.200,-1.266,3.062,-0.227
2019-05-26-02:26:24.679369,0.297,-0.112,10.071,0.800,2.500,62.200,-0.961,2.805,-0.305
2019-05-26-02:26:24.789026,0.287,-0.151,10.112,1.500,3.800,61.300,-1.617,2.570,-0.203
2019-05-26-02:26:24.898698,0.306,-0.194,10.146,1.200,3.300,61.700,-1.070,2.844,-0.297
2019-05-26-02:26:25.008655,0.251,-0.184,10.112,1.500,5.700,62.700,-1.070,2.680,-0.148
2019-05-26-02:26:25.118448,0.285,-0.184,10.114,0.900,3.300,62.400,-0.672,2.758,-0.117
2019-05-26-02:26:25.228076,0.275,-0.196,10.143,1.000,3.500,61.900,-1.375,2.672,0.008
2019-05-26-02:26:25.337960,0.299,-0.177,10.136,2.000,3.400,62.600,-1.305,2.680,-0.117
2019-05-26-02:26:25.447674,0.292,-0.199,10.114,1.200,3.000,63.000,-0.648,2.625,-0.125
2019-05-26-02:26:25.557260,0.304,-0.175,10.102,0.700,3.300,61.500,-0.578,2.836,0.172
2019-05-26-02:26:25.667332,0.290,-0.165,10.091,0.500,3.800,61.700,-0.930,2.797,0.016
2019-05-26-02:26:25.777117,0.299,-0.153,10.052,1.000,3.900,61.400,-0.773,2.844,-0.180
2019-05-26-02:26:25.886828,0.251,-0.275,10.091,0.600,4.900,61.000,-1.305,2.711,-0.125
2019-05-26-02:26:25.996606,0.290,-0.292,10.117,1.300,4.000,61.300,-0.672,2.797,0.008
2019-05-26-02:26:26.106451,0.273,-0.206,10.131,0.700,3.600,62.000,-1.383,2.734,-0.023
2019-05-26-02:26:26.218260,0.366,-0.153,10.055,0.900,3.800,60.900,-1.352,2.758,-0.055
2019-05-26-02:26:26.327945,0.378,-0.077,10.205,1.000,4.400,63.100,-0.898,2.719,-0.211
2019-05-26-02:26:26.437596,0.352,-0.191,10.215,1.600,3.200,63.400,-1.195,2.797,0.109
2019-05-26-02:26:26.547656,0.251,-0.299,10.081,1.300,3.200,62.400,-1.078,1.820,-0.133
2019-05-26-02:26:26.657551,0.345,-0.153,10.320,0.900,4.000,63.200,-0.828,2.734,0.039
2019-05-26-02:26:26.767215,0.158,-0.282,10.024,0.500,3.600,61.100,-0.734,2.297,0.016
2019-05-26-02:26:26.877200,0.141,-0.091,10.095,0.600,4.100,62.400,-0.969,2.734,0.008
2019-05-26-02:26:26.987045,0.278,-0.218,10.107,1.800,3.300,61.800,-0.750,2.977,-0.234
2019-05-26-02:26:27.096819,0.328,-0.220,10.098,0.800,4.300,62.700,-1.031,3.047,0.102
2019-05-26-02:26:27.206662,0.213,-0.172,10.167,1.000,3.600,62.900,-1.180,2.391,-0.203
2019-05-26-02:26:27.316482,0.311,-0.146,10.208,1.400,3.200,61.600,-0.164,3.336,0.273
2019-05-26-02:26:27.426454,0.256,-0.457,10.126,0.500,3.500,61.600,-0.773,2.516,0.031
2019-05-26-02:26:27.536192,0.419,-0.225,10.098,1.200,4.400,61.900,-1.266,2.453,-0.180
2019-05-26-02:26:27.646373,0.323,-0.172,10.141,0.200,3.600,62.500,-0.617,3.219,-0.062
2019-05-26-02:26:27.756449,0.335,-0.115,10.100,0.800,4.000,62.400,-0.680,2.820,0.055
2019-05-26-02:26:27.866154,0.246,-0.048,10.205,0.800,4.100,62.100,-1.227,2.453,-0.586
2019-05-26-02:26:27.975827,0.282,-0.220,10.141,1.000,3.500,60.800,-1.141,2.758,-0.125
2019-05-26-02:26:28.085744,0.261,-0.165,10.112,0.600,3.900,60.700,-0.844,2.680,-0.320
2019-05-26-02:26:28.195698,0.306,-0.213,10.098,0.800,4.400,61.900,-0.602,2.648,-0.055
2019-05-26-02:26:28.305503,0.285,-0.220,10.169,1.100,4.800,61.600,-1.039,3.008,0.016
2019-05-26-02:26:28.415148,0.278,-0.144,10.129,1.500,4.000,60.900,-1.148,2.617,0.086
2019-05-26-02:26:28.524817,0.304,-0.160,10.105,2.200,4.200,62.900,-1.141,2.633,-0.125
2019-05-26-02:26:28.634605,0.297,-0.196,10.129,0.300,3.600,61.200,-0.984,2.539,-0.141
2019-05-26-02:26:28.748896,0.297,-0.175,10.114,1.000,4.300,61.700,-1.039,2.633,-0.102
2019-05-26-02:26:28.858922,0.301,-0.167,10.110,0.600,3.500,62.400,-1.281,2.828,-0.102
2019-05-26-02:26:28.968776,0.287,-0.156,10.095,1.400,3.900,62.800,-1.164,2.930,0.031
2019-05-26-02:26:29.078474,0.292,-0.153,10.114,2.000,4.200,62.200,-1.453,2.656,-0.102
2019-05-26-02:26:29.188245,0.290,-0.172,10.129,0.900,4.200,61.100,-1.055,2.672,0.055
2019-05-26-02:26:29.298231,0.294,-0.170,10.119,1.800,4.500,61.300,-0.875,2.609,0.008
2019-05-26-02:26:29.407886,0.301,-0.179,10.131,0.500,4.200,62.300,-1.078,2.797,0.086
2019-05-26-02:26:29.517641,0.287,-0.167,10.134,0.300,3.800,61.500,-1.156,2.672,-0.234
2019-05-26-02:26:29.627533,0.263,-0.170,10.131,0.600,3.400,62.500,-0.984,2.766,-0.227
2019-05-26-02:26:29.737315,0.282,-0.153,10.143,1.200,3.600,62.900,-0.984,2.906,-0.031
2019-05-26-02:26:29.847051,0.285,-0.179,10.177,0.300,4.200,63.200,-1.406,2.633,-0.203
2019-05-26-02:26:29.956963,0.290,-0.182,10.124,1.000,3.600,61.500,-1.039,2.562,-0.273
2019-05-26-02:26:30.066943,0.294,-0.182,10.131,1.100,4.100,61.100,-0.867,2.672,-0.125
2019-05-26-02:26:30.176740,0.263,-0.182,10.136,1.000,4.100,63.000,-0.828,2.570,-0.102
2019-05-26-02:26:30.286572,0.270,-0.165,10.124,2.600,3.500,64.500,-1.453,2.734,-0.055
2019-05-26-02:26:30.396230,0.342,-0.132,10.141,0.600,3.700,62.300,-0.781,2.883,-0.250
2019-05-26-02:26:30.506218,0.256,-0.134,10.088,1.300,3.800,61.900,-0.977,2.539,0.016
2019-05-26-02:26:30.616085,0.290,-0.146,10.067,1.500,3.600,61.000,-1.188,2.570,-0.117
2019-05-26-02:26:30.725811,0.263,-0.129,10.146,1.100,3.800,61.000,-1.508,2.391,-0.227
2019-05-26-02:26:30.835439,0.254,-0.191,10.105,0.400,3.500,62.200,-0.867,2.992,-0.047
2019-05-26-02:26:30.945024,0.395,-0.203,10.198,1.100,3.500,60.900,-0.898,3.023,-0.117
2019-05-26-02:26:31.054855,0.242,-0.160,10.172,1.600,3.700,62.500,-0.695,2.719,-0.211
2019-05-26-02:26:31.164677,0.342,-0.105,9.978,1.200,4.800,61.700,-1.023,2.891,-0.320
2019-05-26-02:26:31.274665,0.134,-0.091,10.342,1.100,3.800,62.100,-0.922,2.195,0.109
2019-05-26-02:26:31.384321,0.139,-0.179,10.325,1.000,3.000,62.800,-0.820,2.852,-0.453
2019-05-26-02:26:31.493939,0.220,-0.347,10.047,0.800,4.300,61.600,-1.109,2.883,-0.102
2019-05-26-02:26:31.603598,0.318,-0.005,10.225,1.700,4.100,61.200,-1.195,2.875,0.109
2019-05-26-02:26:31.713582,0.258,-0.091,10.174,0.700,4.100,62.700,-1.305,2.844,-0.094
2019-05-26-02:26:31.823354,0.299,-0.139,10.148,1.900,3.600,61.700,-1.477,2.742,-0.141
2019-05-26-02:26:31.933285,0.282,-0.179,10.126,0.500,3.300,60.900,-0.727,2.789,0.078
2019-05-26-02:26:32.043132,0.301,-0.167,10.131,1.500,4.100,62.200,-0.984,2.867,-0.008
2019-05-26-02:26:32.153032,0.285,-0.184,10.124,2.300,4.300,61.800,-0.562,2.781,-0.234
2019-05-26-02:26:32.262970,0.297,-0.182,10.134,0.500,3.800,61.300,-0.719,2.656,-0.141
2019-05-26-02:26:32.372579,0.290,-0.182,10.138,1.200,3.700,61.900,-1.008,2.570,-0.125
2019-05-26-02:26:32.482535,0.290,-0.184,10.117,0.900,4.500,61.900,-0.875,2.742,-0.281
2019-05-26-02:26:32.592216,0.285,-0.175,10.136,1.100,3.400,61.100,-1.289,2.633,-0.258
2019-05-26-02:26:32.701992,0.299,-0.182,10.126,1.000,4.400,61.800,-1.070,2.547,-0.094
2019-05-26-02:26:32.811662,0.292,-0.167,10.114,1.600,4.300,62.600,-0.953,2.602,0.109
2019-05-26-02:26:32.921557,0.285,-0.187,10.129,0.000,4.500,61.400,-0.984,2.633,-0.164
2019-05-26-02:26:33.031315,0.285,-0.170,10.110,0.700,4.500,62.000,-1.266,2.672,-0.406
2019-05-26-02:26:33.141431,0.294,-0.172,10.143,1.200,3.500,62.600,-1.406,2.680,-0.047
2019-05-26-02:26:33.251267,0.278,-0.167,10.122,0.700,3.700,61.800,-0.898,2.734,-0.258
2019-05-26-02:26:33.361059,0.297,-0.163,10.112,0.600,2.600,62.700,-0.922,2.648,-0.102
2019-05-26-02:26:33.470693,0.280,-0.172,10.117,1.100,2.300,63.300,-0.609,2.734,0.039
2019-05-26-02:26:33.580242,0.292,-0.172,10.102,1.000,3.200,62.200,-1.383,2.680,-0.102
2019-05-26-02:26:33.690551,0.282,-0.182,10.114,0.900,4.000,62.000,-0.875,2.883,-0.203
2019-05-26-02:26:33.804347,0.299,-0.172,10.122,1.200,3.700,62.700,-1.047,3.039,-0.297
2019-05-26-02:26:33.914122,0.299,-0.179,10.124,1.200,3.300,62.700,-0.703,2.648,-0.344
2019-05-26-02:26:34.023942,0.287,-0.163,10.138,1.800,3.300,60.400,-1.289,2.867,-0.094
2019-05-26-02:26:34.133967,0.299,-0.177,10.107,1.800,3.100,62.700,-1.117,2.734,-0.125
2019-05-26-02:26:34.243706,0.275,-0.177,10.124,1.300,2.800,61.000,-1.094,2.719,0.008
2019-05-26-02:26:34.353439,0.290,-0.184,10.112,2.300,4.700,62.000,-1.094,2.672,-0.055
2019-05-26-02:26:34.463188,0.299,-0.179,10.110,1.500,3.500,61.300,-0.750,2.820,-0.297
2019-05-26-02:26:34.575144,0.270,-0.172,10.134,0.000,3.300,61.600,-1.039,2.828,-0.094
2019-05-26-02:26:34.685011,0.297,-0.179,10.122,1.600,3.500,61.300,-0.836,2.789,0.109
2019-05-26-02:26:34.794736,0.292,-0.172,10.119,0.300,3.900,61.700,-0.695,2.758,-0.281
2019-05-26-02:26:34.904795,0.280,-0.175,10.112,1.300,3.500,60.700,-1.234,2.594,-0.164
2019-05-26-02:26:35.014796,0.278,-0.177,10.129,1.100,4.300,60.900,-1.133,2.766,-0.094
2019-05-26-02:26:35.124638,0.278,-0.184,10.119,1.300,4.700,61.200,-0.852,2.867,-0.180
2019-05-26-02:26:35.234297,0.292,-0.175,10.107,1.000,4.300,62.300,-1.305,2.695,-0.273
2019-05-26-02:26:35.344276,0.292,-0.175,10.129,1.700,3.900,63.000,-1.211,2.586,0.133
2019-05-26-02:26:35.453958,0.297,-0.177,10.117,1.300,3.200,61.800,-0.805,2.977,-0.047
2019-05-26-02:26:35.563567,0.311,-0.170,10.129,1.300,3.900,61.600,-1.016,2.625,-0.273
2019-05-26-02:26:35.673345,0.297,-0.187,10.136,0.500,2.200,62.100,-0.828,2.867,0.008
2019-05-26-02:26:35.783100,0.294,-0.172,10.117,2.000,3.100,61.000,-1.133,2.852,-0.078
2019-05-26-02:26:35.892943,0.282,-0.189,10.117,1.400,3.100,62.000,-1.180,2.375,-0.250
2019-05-26-02:26:36.002653,0.287,-0.172,10.124,2.000,3.200,61.800,-1.000,2.758,0.102
2019-05-26-02:26:36.112585,0.292,-0.179,10.112,1.700,3.500,62.900,-0.844,2.570,-0.141
2019-05-26-02:26:36.222276,0.290,-0.179,10.126,1.100,4.100,61.400,-0.719,2.672,-0.070
2019-05-26-02:26:36.331995,0.290,-0.175,10.126,1.100,4.100,62.200,-0.914,2.734,-0.258
2019-05-26-02:26:36.441617,0.294,-0.189,10.131,1.600,2.500,60.700,-1.227,2.695,-0.188
2019-05-26-02:26:36.551588,0.280,-0.158,10.126,0.900,3.800,62.000,-0.922,2.680,-0.070
2019-05-26-02:26:36.661399,0.292,-0.179,10.131,0.200,4.000,62.100,-1.188,2.609,-0.188
2019-05-26-02:26:36.771156,0.292,-0.187,10.124,1.200,4.000,61.900,-0.742,2.680,-0.141
2019-05-26-02:26:36.880797,0.273,-0.189,10.124,0.800,3.200,61.700,-0.992,2.719,-0.148
2019-05-26-02:26:36.990712,0.280,-0.170,10.098,1.600,3.300,61.300,-1.109,2.609,0.008
2019-05-26-02:26:37.100599,0.273,-0.177,10.100,0.800,3.200,63.300,-0.555,2.719,-0.297
2019-05-26-02:26:37.210327,0.294,-0.177,10.129,1.700,4.400,60.900,-1.203,2.820,-0.234
2019-05-26-02:26:37.320370,0.294,-0.163,10.114,2.300,3.600,61.200,-0.906,2.945,0.062
2019-05-26-02:26:37.430035,0.292,-0.184,10.131,1.800,3.000,61.600,-1.055,2.516,0.031
2019-05-26-02:26:37.539638,0.290,-0.172,10.114,1.000,4.000,60.200,-1.094,2.711,-0.258
2019-05-26-02:26:37.649444,0.292,-0.194,10.126,1.200,4.000,61.500,-0.852,2.586,-0.164
2019-05-26-02:26:37.759510,0.280,-0.170,10.114,1.600,3.100,61.800,-0.938,2.820,-0.047
2019-05-26-02:26:37.869352,0.278,-0.165,10.114,1.400,3.900,60.900,-1.234,2.797,-0.055
2019-05-26-02:26:37.979266,0.290,-0.160,10.124,0.700,4.500,61.800,-0.609,2.633,-0.164
2019-05-26-02:26:38.089055,0.290,-0.170,10.117,0.900,4.200,61.200,-0.969,2.797,-0.102
2019-05-26-02:26:38.198810,0.290,-0.175,10.141,1.100,3.700,62.600,-0.945,2.586,-0.234
2019-05-26-02:26:38.308535,0.275,-0.177,10.126,0.500,3.500,61.500,-0.797,2.805,-0.258
2019-05-26-02:26:38.418160,0.282,-0.175,10.105,0.500,3.700,61.700,-0.852,2.930,-0.234
2019-05-26-02:26:38.528146,0.290,-0.191,10.122,1.100,3.700,61.500,-1.156,2.766,0.008
2019-05-26-02:26:38.637980,0.292,-0.177,10.122,1.100,4.100,62.600,-1.086,2.844,-0.094
2019-05-26-02:26:38.747718,0.282,-0.160,10.100,0.800,4.300,62.100,-0.945,2.695,-0.078
2019-05-26-02:26:38.861418,0.270,-0.172,10.110,0.700,3.400,62.300,-0.969,2.609,-0.031
2019-05-26-02:26:38.971431,0.287,-0.189,10.129,0.900,4.000,61.000,-0.961,2.711,-0.125
2019-05-26-02:26:39.081322,0.282,-0.182,10.119,1.100,4.000,62.600,-0.961,2.766,-0.141
2019-05-26-02:26:39.191133,0.239,-0.153,10.112,1.400,3.300,62.600,-0.875,2.672,-0.367
2019-05-26-02:26:39.300816,0.280,-0.167,10.112,-0.100,3.200,61.600,-1.117,2.625,-0.180
2019-05-26-02:26:39.410416,0.306,-0.167,10.098,0.300,3.500,62.200,-0.914,2.680,-0.031
2019-05-26-02:26:39.519988,0.278,-0.172,10.117,0.900,3.800,61.500,-0.961,2.648,-0.297
2019-05-26-02:26:39.629743,0.309,-0.165,10.119,0.900,3.200,62.200,-0.898,2.977,-0.281
2019-05-26-02:26:39.739774,0.280,-0.184,10.150,1.300,3.800,61.600,-0.711,2.688,0.125
2019-05-26-02:26:39.849575,0.280,-0.182,10.134,0.600,4.100,62.700,-1.234,2.914,-0.203
2019-05-26-02:26:39.959508,0.292,-0.206,10.138,1.400,4.600,62.700,-0.727,2.656,-0.117
2019-05-26-02:26:40.069370,0.270,-0.191,10.122,2.000,3.400,62.200,-0.938,2.828,-0.359
2019-05-26-02:26:40.179485,0.266,-0.177,10.131,0.700,3.300,61.600,-0.703,2.703,0.062
2019-05-26-02:26:40.289316,0.290,-0.167,10.112,0.900,4.300,61.900,-0.766,2.625,-0.258
2019-05-26-02:26:40.398980,0.306,-0.170,10.102,0.000,4.400,62.200,-1.141,2.805,-0.125
2019-05-26-02:26:40.508594,0.290,-0.182,10.114,1.900,4.000,61.700,-0.781,2.766,-0.125
2019-05-26-02:26:40.618349,0.292,-0.167,10.095,2.100,4.400,62.800,-1.055,2.641,0.148
2019-05-26-02:26:40.728027,0.285,-0.177,10.131,1.100,4.000,62.900,-1.164,2.797,-0.141
2019-05-26-02:26:40.837672,0.282,-0.158,10.134,-0.300,4.900,61.600,-1.164,2.555,0.281
2019-05-26-02:26:40.947683,0.263,-0.170,10.136,0.800,4.100,62.800,-1.070,2.758,-0.023
2019-05-26-02:26:41.057562,0.301,-0.172,10.122,0.100,3.400,62.100,-1.117,2.820,-0.250
2019-05-26-02:26:41.167543,0.294,-0.160,10.126,0.300,3.800,61.500,-1.070,2.711,-0.273
2019-05-26-02:26:41.277796,0.292,-0.170,10.119,0.900,4.100,62.300,-0.844,2.508,-0.148
2019-05-26-02:26:41.387725,0.292,-0.167,10.129,0.700,4.200,62.500,-0.875,2.625,0.195
2019-05-26-02:26:41.497743,0.290,-0.179,10.134,-0.500,4.000,61.900,-0.844,2.680,-0.094
2019-05-26-02:26:41.607595,0.294,-0.172,10.129,0.400,3.800,61.800,-1.086,2.680,-0.094
2019-05-26-02:26:41.717340,0.287,-0.187,10.100,0.500,3.300,61.600,-1.250,2.797,-0.305
2019-05-26-02:26:41.827263,0.285,-0.175,10.141,1.000,5.200,62.000,-1.383,2.680,0.008
2019-05-26-02:26:41.937196,0.282,-0.170,10.138,0.700,4.600,61.300,-0.992,2.664,0.078
2019-05-26-02:26:42.047194,0.309,-0.201,10.110,1.500,3.900,61.700,-1.250,2.594,-0.320
2019-05-26-02:26:42.157194,0.290,-0.163,10.124,1.000,4.400,61.400,-0.938,2.719,-0.125
2019-05-26-02:26:42.267299,0.287,-0.179,10.126,0.100,4.600,62.700,-0.898,2.680,-0.305
2019-05-26-02:26:42.377558,0.297,-0.167,10.102,1.300,5.000,61.900,-1.266,2.891,-0.094
2019-05-26-02:26:42.487770,0.297,-0.172,10.119,1.600,3.500,61.500,-0.719,2.609,-0.320
2019-05-26-02:26:42.597498,0.285,-0.175,10.122,0.600,3.300,62.000,-0.992,2.680,-0.227
2019-05-26-02:26:42.707287,0.301,-0.182,10.114,1.600,3.900,62.600,-1.023,2.797,-0.211
2019-05-26-02:26:42.817088,0.270,-0.201,10.129,1.600,4.800,61.500,-1.219,2.875,0.109
2019-05-26-02:26:42.926764,0.299,-0.172,10.119,0.800,3.000,62.500,-0.680,2.562,-0.234
2019-05-26-02:26:43.038625,0.290,-0.167,10.107,0.300,3.400,62.600,-0.938,2.742,-0.031
2019-05-26-02:26:43.148414,0.280,-0.160,10.131,1.100,3.600,61.600,-1.305,2.844,-0.078
2019-05-26-02:26:43.258317,0.287,-0.184,10.110,1.600,5.200,62.400,-1.117,2.805,-0.047
2019-05-26-02:26:43.368374,0.280,-0.170,10.124,1.500,4.200,61.000,-1.188,2.508,-0.250
2019-05-26-02:26:43.478075,0.290,-0.175,10.112,0.600,5.200,61.200,-1.211,2.797,0.008
2019-05-26-02:26:43.587695,0.287,-0.167,10.114,1.800,3.300,62.100,-0.875,2.953,-0.258
2019-05-26-02:26:43.697686,0.301,-0.172,10.124,2.100,4.400,60.600,-0.875,2.828,-0.250
2019-05-26-02:26:43.807357,0.292,-0.172,10.126,1.600,4.500,61.800,-1.008,2.547,-0.055
2019-05-26-02:26:43.921180,0.299,-0.165,10.122,0.800,4.000,61.800,-0.992,2.992,-0.125
2019-05-26-02:26:44.031113,0.290,-0.177,10.126,1.900,5.300,62.100,-1.047,2.539,0.008
2019-05-26-02:26:44.140909,0.278,-0.179,10.136,1.600,3.700,61.300,-1.266,2.477,0.062
2019-05-26-02:26:44.250573,0.290,-0.177,10.124,2.000,4.000,62.000,-1.258,2.914,-0.148
2019-05-26-02:26:44.360248,0.285,-0.187,10.119,2.000,3.500,60.700,-1.008,2.656,-0.055
2019-05-26-02:26:44.469911,0.297,-0.203,10.124,1.200,3.000,61.500,-1.141,2.719,-0.234
2019-05-26-02:26:44.579798,0.292,-0.182,10.114,1.500,3.400,62.100,-0.672,2.695,-0.297
2019-05-26-02:26:44.689632,0.299,-0.160,10.124,1.300,3.400,61.700,-1.148,2.664,0.133
2019-05-26-02:26:44.799398,0.275,-0.177,10.126,0.400,4.000,61.600,-1.359,2.562,-0.320
2019-05-26-02:26:44.909363,0.273,-0.177,10.122,0.600,3.500,61.700,-1.469,2.852,-0.305
2019-05-26-02:26:45.019345,0.292,-0.179,10.131,1.700,3.700,62.000,-0.602,2.930,-0.047
2019-05-26-02:26:45.129240,0.287,-0.175,10.126,1.400,3.300,61.700,-0.883,2.898,0.016
2019-05-26-02:26:45.238943,0.294,-0.170,10.122,1.500,4.200,62.500,-0.758,2.664,0.039
2019-05-26-02:26:45.348682,0.282,-0.165,10.102,0.600,3.400,62.000,-0.883,2.773,0.234
2019-05-26-02:26:45.458306,0.280,-0.177,10.131,1.100,3.900,61.400,-1.047,2.852,-0.164
2019-05-26-02:26:45.567876,0.294,-0.175,10.138,1.000,3.600,61.100,-1.188,2.867,-0.031
2019-05-26-02:26:45.677665,0.287,-0.191,10.141,1.000,3.600,61.000,-0.781,2.891,-0.203
2019-05-26-02:26:45.787666,0.290,-0.182,10.110,1.600,2.500,61.500,-0.938,2.508,-0.094
2019-05-26-02:26:45.897532,0.294,-0.182,10.114,1.900,3.800,61.800,-0.781,2.969,-0.203
2019-05-26-02:26:46.007237,0.290,-0.191,10.117,0.900,3.000,60.700,-1.211,2.648,-0.094
2019-05-26-02:26:46.117356,0.297,-0.184,10.126,1.700,3.600,61.100,-0.961,2.719,-0.141
2019-05-26-02:26:46.227153,0.287,-0.179,10.134,0.500,3.700,61.900,-1.328,2.672,-0.211
2019-05-26-02:26:46.336943,0.290,-0.177,10.131,2.200,3.600,61.600,-1.008,2.828,-0.047
2019-05-26-02:26:46.446613,0.285,-0.172,10.119,0.700,2.800,61.500,-1.164,2.656,-0.125
2019-05-26-02:26:46.556187,0.184,-0.254,10.165,2.200,3.800,60.600,-1.719,3.062,-0.078
2019-05-26-02:26:46.665925,0.309,-0.129,10.258,1.000,3.200,60.600,-1.211,2.844,0.078
2019-05-26-02:26:46.775585,0.361,-0.081,10.122,1.700,3.800,62.500,-1.008,2.562,-0.281
2019-05-26-02:26:46.885198,0.318,-0.122,10.124,0.900,2.800,61.800,-0.742,2.719,-0.125
2019-05-26-02:26:46.995084,0.297,-0.146,10.110,1.200,3.800,61.000,-1.055,2.797,0.078
2019-05-26-02:26:47.104993,0.299,-0.139,10.124,-0.100,4.100,62.200,-1.203,2.930,-0.047
2019-05-26-02:26:47.215083,0.263,-0.206,10.155,1.800,3.000,61.800,-1.266,2.727,0.211
2019-05-26-02:26:47.325130,0.266,-0.201,10.105,1.400,3.600,62.500,-0.680,2.617,0.086
2019-05-26-02:26:47.434929,0.206,-0.187,10.079,1.500,3.000,61.700,-1.445,2.234,0.055
2019-05-26-02:26:47.544628,0.313,-0.144,10.162,0.800,3.000,61.200,-0.469,3.008,0.031
2019-05-26-02:26:47.654372,0.246,-0.220,10.059,1.600,3.800,63.300,-1.133,2.930,-0.031
2019-05-26-02:26:47.764114,0.285,-0.223,10.055,1.500,3.700,61.900,-0.578,2.844,-0.141
2019-05-26-02:26:47.873776,0.280,-0.148,10.081,1.600,3.700,61.900,-0.914,2.969,-0.203
2019-05-26-02:26:47.983416,0.388,-0.239,10.071,0.500,3.300,61.400,-0.789,3.367,-0.180
2019-05-26-02:26:48.093699,0.232,-0.148,10.095,0.100,4.000,61.600,-1.070,2.602,0.133
2019-05-26-02:26:48.203657,0.342,-0.093,10.093,1.100,3.300,62.900,-1.117,2.906,-0.078
2019-05-26-02:26:48.313456,0.301,-0.136,10.112,1.500,4.000,61.500,-1.070,2.617,0.039
2019-05-26-02:26:48.423169,0.251,-0.165,10.181,0.500,3.100,62.400,-0.945,2.633,-0.125
2019-05-26-02:26:48.533138,0.261,-0.177,10.181,1.200,4.000,61.600,-0.961,2.820,-0.320
2019-05-26-02:26:48.643041,0.244,-0.134,10.251,1.000,3.400,61.100,-1.117,2.539,-0.008
2019-05-26-02:26:48.752830,0.242,-0.191,10.153,1.900,4.900,61.300,-1.000,2.023,-0.219
2019-05-26-02:26:48.862475,0.299,-0.227,10.093,1.100,4.400,61.300,-1.305,2.586,-0.117
2019-05-26-02:26:48.976595,0.290,-0.120,10.201,1.600,4.000,62.000,-1.359,3.055,-0.367
2019-05-26-02:26:49.086279,0.278,-0.177,10.079,0.700,3.700,61.700,-0.898,2.781,-0.117
2019-05-26-02:26:49.195978,0.234,-0.201,10.165,1.800,3.200,62.100,-1.070,2.461,-0.258
2019-05-26-02:26:49.306055,0.278,-0.148,10.134,2.800,3.300,61.400,-0.883,2.688,0.086
2019-05-26-02:26:49.415754,0.268,-0.177,10.112,2.100,3.900,61.800,-0.883,2.984,0.039
2019-05-26-02:26:49.526546,0.270,-0.323,10.043,0.800,5.300,62.300,-1.047,2.656,-0.102
2019-05-26-02:26:49.636631,0.347,-0.211,10.102,0.800,4.200,61.500,-0.664,2.500,0.266
2019-05-26-02:26:49.746748,0.311,-0.191,10.102,1.100,3.100,60.600,-1.258,3.023,-0.281
2019-05-26-02:26:49.856600,0.318,-0.167,10.131,1.400,2.700,62.400,-0.141,2.547,-0.102
2019-05-26-02:26:49.966759,0.294,-0.275,10.191,1.900,4.500,59.800,-1.086,2.805,-0.211
2019-05-26-02:26:50.076671,0.290,-0.268,10.136,1.200,4.000,62.100,-0.922,2.758,0.062
2019-05-26-02:26:50.186541,0.333,-0.297,10.198,0.900,4.600,64.000,-1.289,2.828,-0.203
2019-05-26-02:26:50.296337,0.220,-0.175,10.160,0.500,3.500,61.400,-0.609,2.328,-0.188
2019-05-26-02:26:50.406016,0.421,-0.060,10.411,1.400,3.500,63.000,-1.445,2.266,-0.102
2019-05-26-02:26:50.515936,0.163,-0.074,10.124,1.600,3.300,62.800,-1.008,3.273,0.156
2019-05-26-02:26:50.625637,0.313,0.091,9.901,0.900,5.100,62.900,-0.484,2.586,-0.164
2019-05-26-02:26:50.735361,0.261,-0.213,10.105,1.600,4.100,61.900,-0.578,2.461,-0.391
2019-05-26-02:26:50.845062,0.292,-0.237,10.079,1.900,3.400,64.500,-1.219,3.250,0.094
2019-05-26-02:26:50.955065,0.407,-0.256,10.313,0.600,4.100,61.900,-1.266,2.992,-0.047
2019-05-26-02:26:51.064945,0.306,-0.184,10.270,1.200,3.500,62.600,-0.859,2.773,0.133
2019-05-26-02:26:51.174782,0.258,-0.124,9.954,1.300,3.400,60.500,-1.289,2.977,-0.117
2019-05-26-02:26:51.284520,0.378,-0.177,10.146,2.100,3.800,62.700,-0.867,2.992,-0.023
2019-05-26-02:26:51.396223,0.364,-0.263,10.146,0.600,4.700,60.100,-0.852,2.672,-0.141
2019-05-26-02:26:51.505918,0.292,-0.167,10.143,1.400,2.800,62.900,-0.750,3.039,-0.320
2019-05-26-02:26:51.615762,0.304,-0.158,10.126,0.400,4.200,62.400,-0.773,2.594,-0.141
2019-05-26-02:26:51.725692,0.294,-0.167,10.100,1.600,4.800,61.900,-1.117,2.625,-0.023
2019-05-26-02:26:51.835313,0.290,-0.158,10.122,1.500,3.300,61.900,-1.180,2.734,-0.211
2019-05-26-02:26:51.944932,0.290,-0.170,10.110,2.600,3.800,61.200,-0.828,2.500,0.148
2019-05-26-02:26:52.054704,0.311,-0.177,10.091,0.700,4.000,62.800,-1.430,2.820,-0.117
2019-05-26-02:26:52.164729,0.285,-0.203,10.126,1.200,3.400,61.900,-0.922,2.656,-0.117
2019-05-26-02:26:52.274512,0.309,-0.189,10.112,1.200,4.100,63.400,-0.945,2.680,-0.250
2019-05-26-02:26:52.384203,0.354,-0.244,10.189,1.500,3.500,61.700,-0.930,2.727,0.109
2019-05-26-02:26:52.493817,0.359,-0.211,10.225,0.100,3.600,61.400,-1.320,2.789,0.109
2019-05-26-02:26:52.603459,0.318,-0.136,10.191,1.300,4.700,60.500,-0.719,2.820,-0.031
2019-05-26-02:26:52.713181,0.419,0.096,10.062,1.300,3.800,62.600,-0.609,3.000,-0.523
2019-05-26-02:26:52.822909,0.275,-0.232,10.031,1.300,3.700,61.300,-1.188,2.672,-0.188
2019-05-26-02:26:52.933063,0.263,-0.175,10.141,1.500,3.500,62.000,-0.891,2.398,-0.297
2019-05-26-02:26:53.043063,0.275,-0.189,10.091,2.100,3.600,61.800,-1.039,2.805,-0.180
2019-05-26-02:26:53.152958,0.299,-0.225,10.081,1.800,3.700,63.300,-1.305,2.711,-0.273
2019-05-26-02:26:53.262711,0.285,-0.117,10.119,0.400,4.100,61.200,-0.969,3.273,-0.383
2019-05-26-02:26:53.372794,0.280,-0.120,10.064,1.200,4.700,61.900,-0.969,2.828,-0.125
2019-05-26-02:26:53.482492,0.287,0.124,10.189,0.300,3.100,61.000,-0.602,2.008,-0.125
2019-05-26-02:26:53.592113,0.227,-0.237,10.244,0.500,3.900,62.600,-0.750,2.820,0.195
2019-05-26-02:26:53.701938,0.297,-0.189,10.251,0.800,3.800,63.400,-0.984,2.562,-0.117
2019-05-26-02:26:53.811596,0.239,-0.148,10.134,1.000,3.200,61.700,-0.805,2.781,-0.055
2019-05-26-02:26:53.921332,0.297,-0.141,10.148,1.200,3.800,61.600,-1.203,2.719,-0.273
2019-05-26-02:26:54.034863,0.345,-0.187,10.107,1.900,3.600,61.500,-0.602,2.180,-0.164
2019-05-26-02:26:54.144979,0.383,-0.282,10.095,1.000,3.000,62.400,-1.117,2.711,-0.328
2019-05-26-02:26:54.254739,0.675,-0.330,10.627,2.200,3.900,61.700,-1.070,2.930,0.312
2019-05-26-02:26:54.364523,0.416,-0.177,10.148,2.100,3.000,60.900,-1.383,2.938,-0.188
2019-05-26-02:26:54.474187,0.376,-0.132,10.186,1.400,3.800,61.400,-0.719,3.164,0.102
2019-05-26-02:26:54.584084,0.237,-0.230,10.024,2.200,3.300,61.700,-1.227,2.461,-0.484
2019-05-26-02:26:54.693879,0.292,-0.160,10.134,1.500,4.700,62.000,-0.695,3.008,0.031
2019-05-26-02:26:54.803555,0.251,-0.129,10.146,1.400,4.000,62.300,-1.305,2.328,-0.383
2019-05-26-02:26:54.914030,0.373,-0.242,10.083,1.800,3.000,61.200,-1.289,2.711,-0.125
2019-05-26-02:26:55.023982,0.299,-0.172,10.153,1.300,3.600,61.600,-1.164,2.820,-0.227
2019-05-26-02:26:55.133798,0.732,-0.220,10.387,1.400,5.100,62.900,-1.438,3.594,0.109
2019-05-26-02:26:55.243497,0.364,-0.170,10.184,1.300,3.300,61.100,-1.445,2.625,0.008
2019-05-26-02:26:55.353505,0.337,-0.120,10.409,1.300,4.300,61.100,-0.602,2.625,-0.148
2019-05-26-02:26:55.463176,0.258,-0.242,10.189,1.700,4.700,62.100,-1.031,3.039,-0.211
2019-05-26-02:26:55.572994,0.268,-0.084,10.105,1.300,4.600,62.600,-0.898,3.055,-0.273
2019-05-26-02:26:55.682845,0.270,-0.129,10.064,0.900,3.100,63.400,-0.805,2.523,-0.484
2019-05-26-02:26:55.792965,0.581,0.835,9.818,0.800,4.000,61.900,-1.828,2.141,-0.633
2019-05-26-02:26:55.902653,0.227,-0.182,10.318,0.900,4.100,63.800,-0.898,3.164,-0.523
2019-05-26-02:26:56.012488,0.196,-0.318,10.162,1.500,3.700,62.900,-1.016,2.375,-0.320
2019-05-26-02:26:56.122279,0.294,-0.153,10.256,1.500,3.800,62.700,-1.203,2.656,-0.047
2019-05-26-02:26:56.231947,0.261,-0.201,10.079,1.000,3.800,63.600,-1.102,2.797,0.258
2019-05-26-02:26:56.341645,0.287,-0.146,10.069,0.000,3.300,61.800,-1.328,2.508,-0.367
2019-05-26-02:26:56.451359,0.290,-0.117,10.165,0.200,3.500,62.700,-0.875,2.609,-0.094
2019-05-26-02:26:56.561370,0.412,-0.206,10.148,0.800,3.500,60.400,-1.055,2.727,0.016
2019-05-26-02:26:56.671229,0.275,-0.268,10.162,1.300,4.000,62.300,-1.047,2.828,-0.023
2019-05-26-02:26:56.781102,0.352,-0.136,10.088,1.100,3.900,61.600,-0.938,2.719,-0.008
2019-05-26-02:26:56.890857,0.290,-0.132,10.172,1.000,3.600,60.700,-0.766,2.891,-0.070
2019-05-26-02:26:57.000840,0.333,-0.177,10.138,0.600,3.100,62.500,-0.539,2.609,-0.070
2019-05-26-02:26:57.110630,0.347,-0.108,10.172,0.800,4.200,62.000,-0.695,2.852,-0.070
2019-05-26-02:26:57.220322,0.270,-0.187,10.155,1.100,3.600,60.700,-0.867,2.672,-0.094
2019-05-26-02:26:57.329976,0.282,-0.301,9.339,0.900,3.800,61.700,-2.367,2.039,0.219
2019-05-26-02:26:57.439624,0.304,-0.227,9.933,1.700,3.400,63.600,-1.062,3.211,0.164
2019-05-26-02:26:57.549282,0.409,-0.062,9.796,0.700,3.000,62.700,-0.961,3.586,0.406
2019-05-26-02:26:57.659008,0.321,-0.227,10.038,1.100,4.300,62.400,-0.992,2.758,-0.188
2019-05-26-02:26:57.769104,0.223,-0.249,10.119,2.100,4.100,61.600,-1.117,2.688,0.031
2019-05-26-02:26:57.878815,0.261,-0.199,10.093,1.400,3.300,62.200,-1.266,2.742,-0.047
2019-05-26-02:26:57.988491,0.225,-0.110,10.189,1.600,3.100,61.300,-0.672,2.852,-0.250
2019-05-26-02:26:58.098210,0.694,0.081,10.504,1.800,4.300,62.100,-1.266,2.859,0.086
2019-05-26-02:26:58.208203,0.333,-0.160,10.337,1.000,4.100,61.500,-0.914,2.992,-0.320
2019-05-26-02:26:58.317945,0.278,-0.074,10.021,1.500,4.700,62.600,-0.945,2.695,-0.211
2019-05-26-02:26:58.427800,0.301,-0.163,10.146,1.500,3.900,62.700,-0.867,2.680,-0.305
2019-05-26-02:26:58.537617,0.483,-0.122,10.193,1.100,3.400,61.300,-1.094,3.234,0.000
2019-05-26-02:26:58.647422,0.290,-0.122,10.091,2.300,3.900,62.800,-0.836,2.500,0.062
2019-05-26-02:26:58.757194,0.290,-0.170,10.124,1.900,3.400,61.900,-0.852,2.945,0.078
2019-05-26-02:26:58.866979,0.203,-0.227,10.126,0.800,4.100,61.200,-1.117,2.820,-0.320
2019-05-26-02:26:58.976962,0.304,-0.273,10.126,1.400,4.200,61.300,-0.844,2.242,0.008
2019-05-26-02:26:59.093366,0.246,-0.146,10.093,2.100,2.500,61.600,-0.891,2.844,-0.281
2019-05-26-02:26:59.203182,0.266,-0.146,10.131,1.000,4.200,62.600,-1.008,2.367,-0.008
2019-05-26-02:26:59.312984,0.359,-0.170,10.227,1.300,3.500,60.700,-1.203,2.742,-0.148
2019-05-26-02:26:59.423081,0.333,-0.196,10.181,3.000,4.100,62.300,-0.898,2.867,-0.094
2019-05-26-02:26:59.532827,0.263,-0.105,10.088,0.700,4.300,61.100,-1.203,2.742,-0.117
2019-05-26-02:26:59.642610,0.270,-0.141,10.196,1.600,4.100,63.200,-1.453,2.547,-0.117
2019-05-26-02:26:59.753219,0.213,-0.191,10.181,1.900,3.800,62.900,-1.234,2.797,0.211
2019-05-26-02:26:59.865340,0.225,-0.199,10.086,1.200,4.000,60.900,-1.352,2.312,-0.258
2019-05-26-02:26:59.975271,0.261,-0.206,10.165,2.100,3.800,63.300,-0.539,2.648,-0.141
2019-05-26-02:27:00.085030,0.333,-0.261,10.134,1.300,3.700,61.700,-0.836,2.625,0.039
2019-05-26-02:27:00.195030,0.290,-0.112,10.122,0.800,3.900,62.400,-0.773,2.859,0.086
2019-05-26-02:27:00.304844,0.256,-0.134,10.119,1.300,3.800,61.600,-0.609,2.719,-0.125
2019-05-26-02:27:00.414486,0.280,-0.268,10.162,0.600,3.700,62.600,-0.727,2.734,0.133
2019-05-26-02:27:00.524679,0.325,-0.208,10.098,1.800,3.200,62.100,-0.984,2.625,-0.406
2019-05-26-02:27:00.634636,0.316,-0.172,10.112,0.500,2.400,62.200,-1.672,2.633,-0.328
2019-05-26-02:27:00.744379,0.086,-0.215,10.067,0.400,2.700,62.500,-0.570,2.672,0.156
2019-05-26-02:27:00.854050,0.371,0.002,10.136,0.000,3.400,61.800,-1.039,2.648,-0.031
2019-05-26-02:27:00.963854,0.275,-0.163,10.129,0.800,2.500,62.300,-1.055,2.602,0.148
2019-05-26-02:27:01.073584,0.330,-0.163,10.155,1.600,3.100,62.000,-0.820,2.828,-0.078
2019-05-26-02:27:01.183419,0.184,-0.194,10.076,1.300,3.200,62.600,-0.781,2.688,0.016
2019-05-26-02:27:01.293208,0.400,-0.122,10.105,1.200,4.300,61.600,-1.016,2.586,-0.141
2019-05-26-02:27:01.403226,0.266,-0.127,10.100,1.300,3.800,61.400,-1.086,2.906,-0.031
2019-05-26-02:27:01.513000,0.151,0.077,10.256,1.000,4.200,61.800,-0.945,2.969,-0.164
2019-05-26-02:27:01.622852,0.215,-0.196,10.174,1.600,3.100,61.400,-0.875,2.500,-0.477
2019-05-26-02:27:01.733007,0.172,-0.196,10.215,2.400,3.900,62.400,-0.602,2.953,-0.078
2019-05-26-02:27:01.842776,0.275,-0.158,10.134,1.100,3.900,61.200,-1.484,2.836,0.195
2019-05-26-02:27:01.952458,0.167,-0.354,10.071,2.100,3.600,61.400,-0.039,1.648,-0.547
2019-05-26-02:27:02.062358,0.280,-0.318,10.186,1.100,3.900,62.500,-1.367,2.898,0.039
2019-05-26-02:27:02.172273,0.242,-0.117,10.069,1.600,4.000,62.100,-0.984,2.570,-0.117
2019-05-26-02:27:02.282014,0.287,-0.177,10.047,1.600,4.900,61.100,-1.602,2.695,-0.141
2019-05-26-02:27:02.391651,0.404,-0.144,10.076,2.300,4.000,61.100,-1.453,2.898,0.086
2019-05-26-02:27:02.501414,0.232,-0.129,10.141,1.200,3.800,62.500,-0.852,2.648,0.133
2019-05-26-02:27:02.611335,0.301,-0.175,10.126,1.300,2.900,60.400,-1.008,2.766,-0.070
2019-05-26-02:27:02.721165,0.278,-0.215,10.153,1.900,5.200,61.300,-0.750,2.711,-0.227
2019-05-26-02:27:02.830771,0.306,-0.187,10.134,1.000,3.400,61.600,-0.633,2.719,-0.070
2019-05-26-02:27:02.940705,0.292,-0.201,10.105,1.800,3.900,62.200,-1.062,2.781,-0.055
2019-05-26-02:27:03.050542,0.294,-0.167,10.134,1.500,3.900,60.900,-1.258,2.570,-0.234
2019-05-26-02:27:03.160355,0.282,-0.177,10.093,1.800,4.200,62.400,-0.688,2.602,0.109
2019-05-26-02:27:03.270217,0.325,-0.175,10.143,1.100,3.900,62.700,-1.141,2.680,-0.047
2019-05-26-02:27:03.379845,0.299,-0.196,10.124,2.000,3.200,61.300,-1.023,3.086,-0.125
2019-05-26-02:27:03.489540,0.292,-0.179,10.110,1.500,3.800,60.800,-1.031,2.836,0.016
2019-05-26-02:27:03.599134,0.270,-0.213,10.208,2.100,4.200,61.600,-0.945,2.477,-0.094
2019-05-26-02:27:03.708903,0.268,-0.158,10.129,1.200,4.300,61.800,-0.922,2.656,-0.031
2019-05-26-02:27:03.818897,0.311,-0.146,10.198,1.300,4.700,62.000,-0.711,3.219,-0.016
2019-05-26-02:27:03.928598,0.325,-0.249,10.114,1.000,3.400,61.000,-1.188,2.883,-0.203
2019-05-26-02:27:04.038383,0.218,-0.196,9.890,1.500,4.300,62.500,-0.828,2.477,-0.203
2019-05-26-02:27:04.151924,0.388,-0.189,10.095,1.100,3.400,61.300,-1.281,2.586,-0.203
2019-05-26-02:27:04.262770,0.287,-0.208,10.146,1.400,3.800,61.600,-0.844,2.547,-0.273
2019-05-26-02:27:04.373084,0.280,-0.194,10.117,1.200,4.100,61.700,-0.781,2.656,-0.188
2019-05-26-02:27:04.482972,0.306,-0.170,10.131,1.800,3.600,61.600,-1.227,2.805,-0.078
2019-05-26-02:27:04.592666,0.297,-0.167,10.114,0.900,4.800,62.500,-0.844,2.906,-0.523
2019-05-26-02:27:04.702465,0.376,-0.141,10.186,1.000,4.500,62.300,-0.828,2.633,-0.250
2019-05-26-02:27:04.812112,0.268,-0.170,10.129,1.800,3.500,62.800,-1.172,3.148,-0.148
2019-05-26-02:27:04.921716,0.194,-0.301,9.782,1.200,3.600,62.200,-2.016,2.703,0.172
2019-05-26-02:27:05.031594,0.304,-0.175,10.225,0.700,3.500,62.000,-1.195,3.023,-0.125
2019-05-26-02:27:05.141449,0.256,-0.170,10.098,1.800,2.300,62.000,-1.156,2.648,-0.211
2019-05-26-02:27:05.251239,0.275,-0.110,10.074,1.300,3.900,62.900,-1.266,2.781,-0.203
2019-05-26-02:27:05.361358,0.234,-0.124,10.150,1.100,4.400,61.500,-1.055,2.281,0.078
2019-05-26-02:27:05.471136,0.287,-0.220,10.136,1.400,4.100,60.700,-1.078,2.406,0.016
2019-05-26-02:27:05.580715,0.263,-0.194,10.122,0.800,3.000,62.400,-0.969,2.703,0.086
2019-05-26-02:27:05.690394,0.285,-0.182,10.136,1.400,2.900,62.200,-1.312,2.867,-0.383
2019-05-26-02:27:05.800040,0.275,-0.208,10.155,1.400,4.100,61.800,-0.922,2.594,-0.273
2019-05-26-02:27:05.909642,0.325,-0.163,10.117,0.800,4.400,61.900,-0.539,3.062,-0.023
2019-05-26-02:27:06.019461,0.268,-0.232,10.107,1.000,3.100,62.300,-0.812,2.758,0.133
2019-05-26-02:27:06.129336,0.483,-0.146,9.937,1.100,3.300,61.600,-0.711,3.984,0.016
2019-05-26-02:27:06.239424,0.412,-0.213,9.806,2.300,3.600,62.100,-1.383,2.602,0.266
2019-05-26-02:27:06.349276,0.366,-0.184,10.162,0.600,4.100,61.700,-1.266,2.609,-0.008
2019-05-26-02:27:06.458927,0.275,-0.141,10.124,0.900,3.600,62.000,-1.047,3.000,-0.070
2019-05-26-02:27:06.568916,0.290,-0.124,10.119,1.200,3.300,61.700,-0.680,2.820,-0.188
2019-05-26-02:27:06.678736,0.299,-0.196,10.102,1.800,4.400,60.900,-0.719,2.539,-0.148
2019-05-26-02:27:06.788505,0.287,-0.249,10.107,2.200,4.800,61.500,-1.156,2.219,0.133
2019-05-26-02:27:06.898138,0.230,-0.122,10.179,1.900,3.900,61.700,-0.805,3.023,-0.023
2019-05-26-02:27:07.007876,0.287,-0.163,10.124,1.700,4.300,64.100,-1.547,2.586,-0.359
2019-05-26-02:27:07.117730,0.285,-0.184,10.122,1.100,4.300,62.000,-0.938,2.680,-0.031
2019-05-26-02:27:07.227584,0.294,-0.158,10.117,2.100,4.900,62.200,-0.625,2.867,-0.258
2019-05-26-02:27:07.337818,0.287,-0.237,10.155,1.000,4.700,62.300,-1.367,2.602,0.016
2019-05-26-02:27:07.447696,0.246,-0.136,10.124,1.300,3.500,62.900,-0.828,2.719,-0.203
2019-05-26-02:27:07.557310,0.266,-0.191,10.043,1.800,4.000,62.200,-0.625,2.695,-0.164
2019-05-26-02:27:07.667172,0.292,-0.227,10.045,1.400,4.500,62.100,-0.648,2.680,-0.320
2019-05-26-02:27:07.777168,0.230,-0.282,10.181,1.000,3.900,61.800,-1.203,2.367,-0.328
2019-05-26-02:27:07.886917,0.208,-0.172,10.284,1.300,4.600,61.700,-1.148,3.211,0.133
2019-05-26-02:27:07.996714,0.275,-0.153,10.050,1.500,3.900,60.400,-1.148,2.414,0.031
2019-05-26-02:27:08.106656,0.342,-0.203,10.158,0.300,3.300,60.300,-1.070,2.977,-0.141
2019-05-26-02:27:08.218497,0.301,-0.278,10.107,1.100,3.600,61.100,-1.211,2.953,-0.078
2019-05-26-02:27:08.328212,0.270,-0.170,10.026,2.600,4.300,60.700,-0.648,2.766,-0.250
2019-05-26-02:27:08.437830,0.230,-0.187,10.110,1.500,4.100,61.200,-0.703,2.719,-0.211
2019-05-26-02:27:08.547819,0.251,-0.206,10.055,0.200,3.100,62.500,-1.039,2.648,-0.234
2019-05-26-02:27:08.657646,0.278,-0.132,10.102,0.900,4.300,60.900,-1.281,2.562,-0.102
2019-05-26-02:27:08.767378,0.306,0.026,10.062,1.700,4.800,62.400,-1.367,3.023,-0.258
2019-05-26-02:27:08.877153,0.232,-0.127,9.961,2.500,3.700,62.800,-0.680,2.852,-0.094
2019-05-26-02:27:08.987200,0.258,-0.251,10.102,1.300,4.800,61.900,-1.227,2.711,-0.234
2019-05-26-02:27:09.097129,0.249,-0.280,10.098,1.600,4.000,62.700,-0.867,2.758,-0.055
2019-05-26-02:27:09.210935,0.388,-0.285,10.100,1.400,4.100,62.200,-0.773,2.805,-0.008
2019-05-26-02:27:09.320692,0.227,-0.309,9.980,2.500,4.700,63.000,-0.930,3.297,0.398
2019-05-26-02:27:09.430308,0.297,-0.084,10.057,2.000,4.900,63.400,-1.359,2.305,-0.258
2019-05-26-02:27:09.539887,0.261,-0.196,10.184,1.800,4.300,61.600,-0.531,2.914,-0.117
2019-05-26-02:27:09.649632,0.280,-0.223,10.102,0.300,4.800,62.700,-1.047,2.680,-0.367
2019-05-26-02:27:09.759586,0.213,-0.134,10.124,1.300,4.100,60.800,-1.273,2.117,-0.195
2019-05-26-02:27:09.869291,0.211,-0.223,10.119,0.500,4.600,62.200,-1.289,2.477,-0.164
2019-05-26-02:27:09.979251,0.376,-0.153,10.067,2.400,4.600,61.100,-0.750,2.969,0.133
2019-05-26-02:27:10.089002,0.273,-0.132,10.153,1.200,3.900,62.900,-1.023,2.758,0.062
2019-05-26-02:27:10.198942,0.132,-0.077,10.213,1.400,3.500,63.800,-1.828,2.492,0.195
2019-05-26-02:27:10.308793,0.177,-0.151,10.311,1.100,4.000,61.300,-0.930,2.672,0.078
2019-05-26-02:27:10.418464,0.328,-0.132,10.165,0.100,4.000,62.300,-1.023,2.367,-0.078
2019-05-26-02:27:10.528056,0.328,-0.033,10.258,1.700,4.400,63.200,-1.164,2.344,0.039
2019-05-26-02:27:10.637763,0.275,-0.244,9.949,2.400,4.700,62.900,0.453,1.133,-0.031
2019-05-26-02:27:10.747567,0.392,-0.294,10.069,0.700,4.400,60.100,-0.734,2.391,0.188
2019-05-26-02:27:10.857312,0.395,-0.026,9.964,1.000,4.300,61.200,-0.766,2.711,-0.414
2019-05-26-02:27:10.967382,0.275,-0.431,10.102,2.200,3.900,62.500,-1.555,2.453,0.391
2019-05-26-02:27:11.077366,0.337,-0.045,10.074,1.200,3.700,62.500,-0.703,2.461,-0.125
2019-05-26-02:27:11.187242,0.246,-0.268,10.186,1.800,3.200,61.100,-1.836,3.102,0.195
2019-05-26-02:27:11.297023,0.306,-0.031,10.148,0.900,2.900,60.200,-1.070,2.766,-0.203
2019-05-26-02:27:11.407037,0.306,-0.249,10.045,2.300,4.500,61.500,-0.562,2.867,-0.188
2019-05-26-02:27:11.516716,0.215,-0.522,10.198,2.300,2.700,62.300,-0.539,2.586,0.125
2019-05-26-02:27:11.626523,0.361,-0.203,9.990,1.900,3.900,60.900,-1.195,3.188,0.578
2019-05-26-02:27:11.736247,0.237,-0.057,9.856,2.200,3.300,61.200,-1.172,2.602,0.031
2019-05-26-02:27:11.845877,0.378,-0.141,10.093,1.900,4.900,60.000,-0.922,2.656,-0.094
2019-05-26-02:27:11.955661,0.278,-0.045,10.081,2.100,4.400,60.100,-1.492,2.719,-0.227
2019-05-26-02:27:12.065369,0.242,-0.282,10.155,1.500,3.800,59.800,-0.914,2.625,-0.484
2019-05-26-02:27:12.175366,0.232,-0.160,10.129,2.400,3.200,61.700,-1.008,2.656,-0.250
2019-05-26-02:27:12.285151,0.091,-0.179,9.863,2.000,2.900,60.700,-0.844,2.312,-0.102
2019-05-26-02:27:12.394934,0.311,-0.036,10.019,1.900,3.800,62.000,-0.906,1.680,-0.039
2019-05-26-02:27:12.504651,0.342,-0.567,10.418,2.500,3.300,61.500,-1.305,3.766,-0.094
2019-05-26-02:27:12.614658,0.144,-0.301,10.112,2.800,4.000,58.700,-0.914,2.094,-0.422
2019-05-26-02:27:12.724500,0.297,-0.100,10.107,2.000,2.800,59.600,-0.789,2.812,0.258
2019-05-26-02:27:12.834121,0.266,-0.127,10.064,2.500,3.700,61.500,-0.742,2.719,-0.070
2019-05-26-02:27:12.943766,0.306,-0.175,10.134,2.100,3.600,60.000,-0.852,2.609,0.008
2019-05-26-02:27:13.053467,0.301,-0.213,10.210,2.600,3.000,61.600,-0.508,2.805,-0.094
2019-05-26-02:27:13.163229,0.292,-0.232,10.129,1.600,3.700,60.700,-1.070,2.516,0.039
2019-05-26-02:27:13.273081,0.313,-0.187,10.107,2.300,3.200,59.400,-0.695,2.539,-0.141
2019-05-26-02:27:13.383174,0.285,-0.170,10.136,1.500,3.300,61.300,-0.938,2.680,-0.281
2019-05-26-02:27:13.492939,0.246,-0.191,10.141,0.700,2.700,61.500,-1.516,2.703,0.102
2019-05-26-02:27:13.602943,0.282,-0.156,10.119,2.200,3.200,61.000,-1.023,2.883,-0.188
2019-05-26-02:27:13.712901,0.275,-0.144,10.129,2.300,3.500,60.200,-0.359,2.766,-0.031
2019-05-26-02:27:13.823045,0.273,-0.203,10.160,1.100,3.800,61.300,-1.156,2.797,-0.203
2019-05-26-02:27:13.932814,0.263,-0.199,10.129,2.000,3.400,59.600,-1.070,2.586,-0.094
2019-05-26-02:27:14.042642,0.294,-0.167,10.138,1.600,3.000,61.600,-1.180,2.766,-0.125
2019-05-26-02:27:14.152475,0.294,-0.158,10.146,2.500,2.700,60.200,-0.797,2.844,-0.297
2019-05-26-02:27:14.266152,0.203,-0.132,10.105,1.500,3.200,60.900,-1.070,2.797,-0.258
2019-05-26-02:27:14.376083,0.239,-0.124,10.091,2.000,4.200,61.500,-1.359,2.906,-0.188
2019-05-26-02:27:14.486007,0.256,-0.117,10.234,1.200,3.000,60.500,-1.086,2.672,-0.211
2019-05-26-02:27:14.595979,0.318,-0.117,10.129,1.900,3.200,61.000,-1.008,2.633,-0.297
2019-05-26-02:27:14.705748,0.120,-0.187,10.260,1.400,2.900,61.300,-1.492,2.844,-0.125
2019-05-26-02:27:14.815427,0.311,-0.117,10.057,2.100,3.700,59.500,-0.898,2.844,-0.250
2019-05-26-02:27:14.925061,0.282,-0.110,10.241,1.500,3.400,60.700,-0.938,2.992,-0.117
2019-05-26-02:27:15.035104,0.266,-0.179,10.208,2.400,4.400,61.200,-1.141,2.859,0.102
2019-05-26-02:27:15.144974,0.208,-0.146,10.126,0.600,3.600,59.900,-0.781,2.719,-0.141
2019-05-26-02:27:15.254756,0.330,-0.172,10.153,1.800,3.500,62.100,-0.523,2.797,-0.125
2019-05-26-02:27:15.364451,0.285,-0.179,10.126,0.800,3.700,61.100,-1.008,2.930,-0.031
2019-05-26-02:27:15.474127,0.280,-0.160,10.122,2.300,2.300,60.600,-1.367,2.578,0.055
2019-05-26-02:27:15.583704,0.278,-0.170,10.107,2.200,4.200,61.800,-1.039,2.547,-0.164
2019-05-26-02:27:15.693397,0.297,-0.184,10.124,1.400,3.600,60.400,-0.992,2.734,-0.008
2019-05-26-02:27:15.803386,0.297,-0.191,10.131,0.400,4.600,60.800,-1.289,2.938,-0.258
2019-05-26-02:27:15.913143,0.330,-0.100,10.146,1.400,4.200,59.900,-1.203,2.828,-0.305
2019-05-26-02:27:16.022920,0.292,-0.158,10.268,1.300,3.100,61.600,-0.891,2.820,-0.188
2019-05-26-02:27:16.132679,0.223,-0.036,10.026,0.500,3.100,60.600,-0.648,2.828,-0.320
2019-05-26-02:27:16.242692,0.376,-0.179,10.028,1.900,4.300,59.600,-0.852,2.820,-0.430
2019-05-26-02:27:16.352444,0.194,-0.294,9.768,2.100,4.800,61.700,-0.273,2.922,0.133
2019-05-26-02:27:16.462100,0.352,-0.132,10.165,1.000,3.200,60.700,-0.844,2.781,-0.188
2019-05-26-02:27:16.571753,0.232,-0.239,10.110,1.900,3.500,59.500,-0.867,2.547,0.008
2019-05-26-02:27:16.683584,0.249,-0.065,10.461,1.700,3.800,60.600,-1.555,2.758,-0.203
2019-05-26-02:27:16.793314,0.220,-0.069,10.275,1.100,3.600,61.400,-0.891,2.891,-0.211
2019-05-26-02:27:16.903158,0.335,-0.065,10.236,1.900,3.400,61.500,-0.727,2.508,-0.328
2019-05-26-02:27:17.013303,0.163,-0.242,10.110,1.600,3.700,61.300,-0.852,2.469,0.195
2019-05-26-02:27:17.123181,0.292,-0.167,10.244,2.100,2.500,60.300,-1.062,2.562,-0.430
2019-05-26-02:27:17.232958,0.194,-0.242,10.031,2.000,3.200,58.800,-0.891,2.805,-0.008
2019-05-26-02:27:17.342665,0.328,-0.201,10.153,1.900,3.600,59.300,-0.961,2.539,-0.141
2019-05-26-02:27:17.452561,0.455,-0.282,10.150,2.400,2.700,60.600,-0.500,2.672,-0.031
2019-05-26-02:27:17.562284,0.244,-0.182,10.091,3.000,3.800,59.700,-1.180,2.461,-0.094
2019-05-26-02:27:17.672022,0.292,-0.299,10.110,2.800,2.900,60.800,-1.211,3.016,-0.250
2019-05-26-02:27:17.781738,0.304,-0.187,10.012,2.300,3.500,60.300,-0.633,2.766,-0.414
2019-05-26-02:27:17.891387,0.345,-0.194,9.885,2.000,3.200,59.200,-0.797,2.820,-0.164
2019-05-26-02:27:18.001286,0.352,-0.108,10.236,2.600,2.900,59.600,-1.258,2.461,-0.359
2019-05-26-02:27:18.111112,0.273,-0.234,10.110,1.300,3.200,60.500,-1.359,2.773,0.039
2019-05-26-02:27:18.221174,0.517,-0.153,10.186,2.900,3.200,59.200,-0.984,2.906,-0.094
2019-05-26-02:27:18.330905,0.328,-0.321,10.021,2.100,3.300,60.000,-0.477,2.594,-0.047
2019-05-26-02:27:18.440528,0.141,-0.189,9.954,2.600,2.600,59.700,-1.250,2.547,-0.008
2019-05-26-02:27:18.550132,0.309,-0.316,11.093,1.200,2.600,58.700,-1.320,3.156,0.336
2019-05-26-02:27:18.660086,0.323,-0.357,9.952,2.200,3.300,59.900,-0.633,2.891,-0.320
2019-05-26-02:27:18.769828,0.299,-0.153,10.095,1.600,3.700,58.900,-1.250,2.734,-0.164
2019-05-26-02:27:18.879543,0.330,-0.479,10.787,1.200,2.300,59.300,-0.781,2.711,0.328
2019-05-26-02:27:18.989275,0.328,0.024,9.827,1.400,3.600,59.500,-1.891,3.078,-0.641
2019-05-26-02:27:19.099852,0.227,0.081,10.552,1.100,3.500,60.200,-1.461,2.156,-0.359
2019-05-26-02:27:19.209705,0.278,-0.232,10.201,1.500,3.000,61.000,-0.820,2.844,-0.211
2019-05-26-02:27:19.323634,0.254,-0.201,10.064,2.200,3.300,58.200,-0.938,2.906,-0.055
2019-05-26-02:27:19.433620,0.285,-0.158,10.220,2.200,2.700,60.500,-0.719,2.844,-0.141
2019-05-26-02:27:19.543488,0.282,-0.203,10.141,2.800,3.800,59.900,-0.266,3.016,-0.055
2019-05-26-02:27:19.653430,0.321,-0.022,10.354,2.200,3.800,60.400,-1.242,3.031,0.078
2019-05-26-02:27:19.763403,0.256,-0.115,10.038,2.300,2.800,61.000,-1.445,2.461,-0.164
2019-05-26-02:27:19.873436,0.268,-0.108,10.071,1.500,2.900,60.300,-0.477,2.820,-0.383
2019-05-26-02:27:19.983328,0.249,-0.156,10.263,2.500,3.200,59.300,-0.922,2.734,-0.211
2019-05-26-02:27:20.093389,0.299,-0.172,10.126,3.200,2.600,59.200,-1.086,2.852,-0.234
2019-05-26-02:27:20.203189,0.278,-0.184,10.083,1.000,2.200,60.400,-0.648,2.609,-0.383
2019-05-26-02:27:20.312998,0.301,-0.156,10.179,2.300,3.900,59.500,-0.633,2.836,0.211
2019-05-26-02:27:20.422633,0.352,-0.084,9.921,2.900,3.500,59.400,-0.703,2.742,-0.391
2019-05-26-02:27:20.532217,0.290,-0.297,10.105,1.700,3.600,60.500,-1.211,2.664,0.102
2019-05-26-02:27:20.642195,0.246,-0.258,10.114,1.300,3.400,58.400,-0.828,2.617,0.102
2019-05-26-02:27:20.751994,0.273,-0.199,10.162,2.100,3.200,60.000,-1.672,2.734,0.008
2019-05-26-02:27:20.861669,0.290,-0.172,10.083,2.700,4.000,60.600,-1.406,2.742,-0.320
2019-05-26-02:27:20.974155,0.400,-0.249,10.191,1.300,3.300,59.600,-1.008,2.891,-0.117
2019-05-26-02:27:21.083865,0.266,-0.179,10.177,1.800,3.000,57.600,-0.961,2.734,-0.008
2019-05-26-02:27:21.193592,0.275,-0.172,10.184,1.700,4.200,60.400,-1.203,2.852,-0.148
2019-05-26-02:27:21.303297,0.280,-0.175,10.148,2.200,3.000,60.100,-1.086,2.711,-0.117
2019-05-26-02:27:21.412999,0.292,-0.201,10.136,1.300,3.300,59.300,-0.820,2.570,-0.227
2019-05-26-02:27:21.522604,0.292,-0.170,10.124,1.600,3.700,57.900,-1.312,2.836,0.039
2019-05-26-02:27:21.632310,0.299,-0.187,10.129,2.700,3.100,59.400,-0.914,2.992,-0.406
2019-05-26-02:27:21.742051,0.292,-0.170,10.114,2.000,3.300,59.500,-1.188,2.672,-0.031
2019-05-26-02:27:21.852084,0.294,-0.182,10.112,1.100,2.600,59.700,-0.656,2.695,-0.055
2019-05-26-02:27:21.961800,0.292,-0.167,10.129,1.300,3.300,60.100,-0.945,2.633,-0.102
2019-05-26-02:27:22.071485,0.290,-0.170,10.110,2.200,3.800,60.600,-0.961,2.633,-0.273
2019-05-26-02:27:22.182213,0.273,-0.179,10.141,2.800,1.800,60.700,-0.969,2.672,-0.070
2019-05-26-02:27:22.291959,0.285,-0.167,10.134,2.700,3.400,59.200,-0.969,2.844,-0.148
2019-05-26-02:27:22.401633,0.273,-0.177,10.136,1.900,2.400,59.900,-0.391,2.719,0.039
2019-05-26-02:27:22.511332,0.280,-0.177,10.124,1.500,2.700,59.600,-0.961,2.523,0.078
2019-05-26-02:27:22.621055,0.404,-0.201,10.040,1.800,2.700,59.500,-1.055,2.711,0.078
2019-05-26-02:27:22.730791,0.292,-0.167,10.119,2.200,3.900,60.700,-0.938,2.992,-0.234
2019-05-26-02:27:22.840449,0.280,-0.158,10.129,2.600,2.400,60.400,-1.055,2.711,0.195
2019-05-26-02:27:22.950185,0.301,-0.177,10.126,2.000,3.800,59.900,-1.102,2.969,0.078
2019-05-26-02:27:23.060131,0.301,-0.184,10.134,1.600,2.800,60.000,-0.852,2.883,-0.250
2019-05-26-02:27:23.170053,0.290,-0.191,10.122,3.000,3.500,60.700,-0.945,2.633,-0.234
2019-05-26-02:27:23.279762,0.292,-0.170,10.134,2.200,3.300,60.600,-0.898,2.688,0.086
2019-05-26-02:27:23.389718,0.287,-0.170,10.124,2.300,4.200,59.600,-0.875,2.633,-0.211
2019-05-26-02:27:23.499497,0.285,-0.165,10.110,2.400,3.500,59.800,-1.211,2.594,-0.234
2019-05-26-02:27:23.609152,0.280,-0.165,10.131,2.400,3.100,59.300,-1.070,2.375,0.102
2019-05-26-02:27:23.718919,0.297,-0.184,10.124,2.700,2.700,60.300,-1.070,2.594,-0.203
2019-05-26-02:27:23.828544,0.275,-0.179,10.112,2.400,3.300,59.900,-0.828,2.648,0.086
2019-05-26-02:27:23.938165,0.292,-0.163,10.136,0.900,4.000,58.900,-0.656,2.719,-0.141
2019-05-26-02:27:24.047877,0.256,-0.187,10.124,2.500,2.000,60.000,-1.156,2.891,-0.078
2019-05-26-02:27:24.157635,0.294,-0.187,10.129,2.300,2.400,60.100,-1.031,2.672,0.109
2019-05-26-02:27:24.267673,0.287,-0.191,10.158,3.500,2.600,60.300,-0.805,2.156,0.133
2019-05-26-02:27:24.381394,0.273,-0.124,10.093,1.500,3.600,60.700,-1.047,2.508,-0.008
2019-05-26-02:27:24.491354,0.163,-0.258,10.067,2.000,3.900,60.000,-0.742,2.914,-0.094
2019-05-26-02:27:24.601408,0.309,-0.230,10.095,-0.100,3.600,61.300,-0.625,2.758,-0.031
2019-05-26-02:27:24.711341,0.345,-0.294,10.179,1.900,4.500,60.700,-0.750,2.758,0.188
2019-05-26-02:27:24.821107,0.311,-0.153,10.100,1.100,3.200,61.800,-1.047,2.781,-0.141
2019-05-26-02:27:24.930761,0.292,-0.156,10.148,0.800,4.500,60.400,-0.867,2.680,-0.117
2019-05-26-02:27:25.042831,0.280,-0.177,10.126,0.600,3.200,59.700,-0.719,2.914,-0.148
2019-05-26-02:27:25.152671,0.306,-0.179,10.150,0.700,4.700,60.600,-1.328,2.820,-0.031
2019-05-26-02:27:25.262366,0.301,-0.196,10.110,0.900,3.800,61.200,-1.078,2.797,0.211
2019-05-26-02:27:25.372028,0.301,-0.182,10.122,0.300,3.800,61.400,-0.891,2.844,-0.250
2019-05-26-02:27:25.482043,0.290,-0.175,10.134,0.800,3.500,61.200,-0.805,2.711,-0.227
2019-05-26-02:27:25.591729,0.306,-0.194,10.141,1.400,3.900,60.700,-0.867,2.852,-0.117
2019-05-26-02:27:25.701541,0.318,-0.189,10.126,1.500,3.900,61.500,-0.852,2.914,-0.258
2019-05-26-02:27:25.811602,0.297,-0.167,10.129,1.800,3.000,60.500,-1.094,2.758,-0.078
2019-05-26-02:27:25.921326,0.285,-0.211,10.146,0.500,3.400,58.200,-0.656,2.844,-0.367
2019-05-26-02:27:26.031229,0.309,-0.148,10.131,1.800,4.400,61.000,-1.039,2.633,-0.078
2019-05-26-02:27:26.141104,0.304,-0.187,10.134,0.700,4.000,62.100,-0.844,2.828,0.008
2019-05-26-02:27:26.250817,0.306,-0.167,10.098,1.200,4.900,60.800,-1.156,2.805,-0.141
2019-05-26-02:27:26.360529,0.290,-0.175,10.136,1.600,3.700,61.800,-0.898,2.766,-0.008
2019-05-26-02:27:26.470174,0.290,-0.165,10.122,0.600,4.400,59.900,-0.938,2.570,-0.273
2019-05-26-02:27:26.582519,0.292,-0.196,10.134,1.500,3.600,60.500,-0.984,2.867,-0.258
2019-05-26-02:27:26.692515,0.301,-0.175,10.117,0.400,4.200,60.800,-0.742,2.891,-0.055
2019-05-26-02:27:26.802204,0.304,-0.175,10.124,0.500,3.900,60.800,-1.055,2.586,0.016
2019-05-26-02:27:26.911834,0.311,-0.179,10.124,0.500,3.300,60.600,-1.094,2.562,-0.250
2019-05-26-02:27:27.021911,0.294,-0.179,10.112,1.700,3.500,60.800,-0.469,2.797,0.148
2019-05-26-02:27:27.131693,0.301,-0.182,10.107,0.900,4.300,61.000,-1.000,2.578,0.016
2019-05-26-02:27:27.241640,0.294,-0.167,10.102,2.000,4.600,61.400,-0.727,2.758,-0.281
2019-05-26-02:27:27.351467,0.297,-0.172,10.126,0.800,4.300,61.200,-1.133,2.930,-0.211
2019-05-26-02:27:27.461228,0.301,-0.191,10.117,2.100,3.800,61.500,-1.219,2.625,0.062
2019-05-26-02:27:27.570848,0.299,-0.172,10.110,1.800,3.800,59.700,-1.406,2.586,-0.047
2019-05-26-02:27:27.680541,0.316,-0.172,10.129,0.700,4.100,61.700,-0.969,2.609,-0.258
2019-05-26-02:27:27.793006,0.287,-0.177,10.124,0.600,3.800,61.600,-1.086,2.484,-0.023
2019-05-26-02:27:27.902795,0.349,-0.249,10.167,2.000,3.600,61.900,-0.695,2.781,-0.102
2019-05-26-02:27:28.012549,0.280,-0.175,10.117,1.900,4.100,60.000,-1.023,2.969,-0.055
2019-05-26-02:27:28.122321,0.294,-0.237,10.117,0.800,4.000,60.800,-0.945,2.805,-0.516
2019-05-26-02:27:28.232293,0.345,-0.134,10.055,2.100,4.100,59.400,-1.336,2.656,-0.180
2019-05-26-02:27:28.342024,0.301,-0.127,10.124,4.300,2.600,48.700,-1.164,2.742,-0.117
2019-05-26-02:27:28.451733,0.285,-0.184,10.114,3.600,5.700,25.400,-1.039,2.852,-0.070
2019-05-26-02:27:28.561310,0.290,-0.201,10.119,9.300,0.500,13.400,-1.039,2.781,-0.406
2019-05-26-02:27:28.671237,0.299,-0.189,10.129,12.900,-4.400,12.700,-1.062,2.906,-0.117
2019-05-26-02:27:28.780935,0.297,-0.189,10.124,17.700,-6.000,12.400,-0.742,2.953,-0.258
2019-05-26-02:27:28.890630,0.285,-0.177,10.136,22.200,-8.800,14.800,-0.938,2.797,-0.258
2019-05-26-02:27:29.000578,0.292,-0.189,10.148,22.500,-9.500,19.100,-1.227,2.844,-0.047
2019-05-26-02:27:29.110454,0.292,-0.187,10.110,20.400,-8.700,23.100,-0.969,2.719,-0.430
2019-05-26-02:27:29.220243,0.301,-0.194,10.114,17.700,-6.200,22.900,-1.375,2.312,-0.234
2019-05-26-02:27:29.329938,0.306,-0.189,10.122,16.500,-7.200,23.900,-0.914,2.914,-0.297
2019-05-26-02:27:29.446309,0.292,-0.187,10.112,16.100,-7.600,22.600,-1.016,2.656,-0.125
2019-05-26-02:27:29.556014,0.287,-0.189,10.122,16.900,-7.600,22.200,-1.281,2.594,-0.203
2019-05-26-02:27:29.665778,0.301,-0.184,10.119,16.900,-7.600,21.700,-0.961,2.797,-0.359
2019-05-26-02:27:29.775478,0.294,-0.203,10.126,16.800,-6.900,20.500,-1.039,2.625,-0.258
