Time,Acceleration X (m/s^2),Acceleration Y (m/s^2),Acceleration Z (m/s^2),Magnetometer X (uTesla), Magnetometer Y (uTesla)  , Magnetometer Z (uTesla),Gyroscope X (radians/s), Gyroscope Y (radians/s), Gyroscope Z (radians/s)
2019-06-09-14:50:49.941293,0.663,-0.330,10.112,21.800,130.400,45.700,-0.695,3.047,0.617
2019-06-09-14:50:49.957069,0.668,-0.311,10.119,21.900,130.400,45.900,-0.711,3.016,0.312
2019-06-09-14:50:49.972694,0.615,-0.280,10.024,21.900,131.300,45.700,-0.172,2.688,0.211
2019-06-09-14:50:49.988315,0.646,-0.263,10.040,22.300,131.800,45.800,-0.758,2.898,0.266
2019-06-09-14:50:50.003996,0.634,-0.345,10.138,21.100,130.300,44.600,-0.516,2.945,0.469
2019-06-09-14:50:50.019645,0.656,-0.318,10.081,21.800,131.800,46.400,-0.320,2.875,0.219
2019-06-09-14:50:50.035325,0.634,-0.292,10.079,22.100,130.900,44.800,-0.398,2.859,0.531
2019-06-09-14:50:50.050973,0.651,-0.287,10.074,22.800,131.000,44.600,-0.422,2.820,0.375
2019-06-09-14:50:50.066657,0.663,-0.301,10.057,21.100,131.500,45.400,-0.539,2.992,0.422
2019-06-09-14:50:50.082338,0.641,-0.304,10.114,21.700,130.000,45.000,-0.617,3.031,0.508
2019-06-09-14:50:50.097980,0.677,-0.306,10.079,21.700,131.300,44.700,-0.445,2.859,0.445
2019-06-09-14:50:50.113599,0.653,-0.287,10.088,21.500,131.200,45.700,-0.227,2.883,0.578
2019-06-09-14:50:50.129219,0.658,-0.278,10.083,21.600,131.200,44.900,-0.375,2.930,0.312
2019-06-09-14:50:50.144832,0.653,-0.318,10.105,21.700,131.800,44.400,-0.570,2.922,0.555
2019-06-09-14:50:50.160432,0.660,-0.287,10.076,21.300,131.100,46.000,-0.422,2.984,0.523
2019-06-09-14:50:50.176064,0.641,-0.301,10.064,21.700,131.100,45.200,-1.188,2.984,0.555
2019-06-09-14:50:50.191706,0.648,-0.316,10.088,21.100,131.700,48.400,-0.664,2.906,0.352
2019-06-09-14:50:50.207321,0.665,-0.347,10.112,20.800,131.300,46.100,-0.594,2.875,0.391
2019-06-09-14:50:50.222936,0.641,-0.249,10.074,21.400,132.200,45.800,-0.805,2.820,0.641
2019-06-09-14:50:50.238753,0.648,-0.287,10.055,22.100,131.200,45.100,-0.367,2.969,0.445
2019-06-09-14:50:50.254529,0.660,-0.325,10.119,20.800,132.200,46.000,-0.484,2.789,0.523
2019-06-09-14:50:50.270238,0.663,-0.335,10.150,20.700,132.100,45.800,-0.539,2.922,0.398
2019-06-09-14:50:50.285881,0.663,-0.342,10.129,20.900,132.100,46.900,-0.688,2.758,0.508
2019-06-09-14:50:50.301483,0.646,-0.268,10.059,21.200,131.200,46.300,-0.664,3.008,0.523
2019-06-09-14:50:50.319855,0.639,-0.275,10.040,21.700,131.700,45.600,-0.461,2.688,0.109
2019-06-09-14:50:50.339371,0.646,-0.266,10.074,21.500,131.500,45.900,-0.188,2.992,0.414
2019-06-09-14:50:50.358746,0.658,-0.273,10.052,21.800,131.100,45.900,-0.492,2.648,0.352
2019-06-09-14:50:50.378119,0.656,-0.330,10.117,22.400,131.700,44.800,-0.711,3.016,0.438
2019-06-09-14:50:50.397551,0.660,-0.330,10.153,22.100,130.600,44.500,-0.594,3.133,0.445
2019-06-09-14:50:50.416972,0.660,-0.337,10.124,21.300,131.200,44.300,-0.359,3.117,0.508
2019-06-09-14:50:50.436339,0.668,-0.349,10.119,21.100,131.200,45.100,-0.422,2.758,0.492
2019-06-09-14:50:50.455695,0.660,-0.335,10.150,19.900,131.000,44.800,-0.609,2.820,0.445
2019-06-09-14:50:50.475050,0.694,-0.318,10.126,22.600,131.400,45.000,-0.672,2.961,0.508
2019-06-09-14:50:50.494658,0.651,-0.313,10.119,22.000,131.100,45.300,-1.094,2.984,0.305
2019-06-09-14:50:50.514287,0.646,-0.328,10.150,21.600,132.600,44.200,-0.352,2.930,0.281
2019-06-09-14:50:50.533708,0.646,-0.321,10.114,21.800,130.800,45.100,-0.266,2.859,0.523
2019-06-09-14:50:50.553663,0.651,-0.330,10.131,22.200,131.000,45.900,-0.297,2.859,0.188
2019-06-09-14:50:50.573287,0.665,-0.316,10.126,21.300,131.300,45.100,-1.000,2.969,0.422
2019-06-09-14:50:50.592821,0.658,-0.328,10.098,20.700,131.600,45.500,-0.992,2.961,0.523
2019-06-09-14:50:50.612395,0.663,-0.325,10.122,21.900,131.400,45.900,-0.547,2.758,0.312
2019-06-09-14:50:50.631833,0.663,-0.309,10.100,21.000,131.400,45.800,-0.977,2.906,0.547
2019-06-09-14:50:50.651290,0.653,-0.301,10.114,21.600,131.800,46.600,-0.656,2.984,0.258
2019-06-09-14:50:50.670668,0.665,-0.321,10.102,20.100,130.900,45.800,-0.250,2.836,0.531
2019-06-09-14:50:50.690026,0.651,-0.287,10.059,20.700,130.000,44.100,-0.914,3.031,0.234
2019-06-09-14:50:50.711228,0.646,-0.301,10.100,21.900,132.100,45.100,-0.492,2.688,0.602
2019-06-09-14:50:50.730923,0.644,-0.304,10.081,21.200,131.400,46.500,-0.727,2.875,0.602
2019-06-09-14:50:50.750665,0.656,-0.311,10.069,21.100,132.400,45.100,-0.438,2.906,0.211
2019-06-09-14:50:50.770191,0.646,-0.270,10.076,21.400,130.500,46.300,-0.641,2.727,0.672
2019-06-09-14:50:50.789645,0.641,-0.299,10.062,21.900,131.800,45.000,-1.094,2.984,0.484
2019-06-09-14:50:50.809045,0.660,-0.287,10.057,21.300,130.700,45.000,-0.789,2.844,0.422
2019-06-09-14:50:50.828504,0.512,-0.301,10.031,-7.000,93.900,266.300,-0.641,3.016,0.555
2019-06-09-14:50:50.847918,0.634,-0.285,10.019,1.000,67.100,228.100,-0.641,2.664,0.414
2019-06-09-14:50:50.867308,0.653,-0.316,10.052,17.400,22.400,94.000,-0.617,2.969,0.531
2019-06-09-14:50:50.886707,0.646,-0.311,10.114,-9.700,30.800,169.800,-0.438,2.820,0.336
2019-06-09-14:50:50.906078,0.665,-0.357,10.126,8.500,29.500,142.900,-0.305,2.922,0.445
2019-06-09-14:50:50.925491,0.668,-0.342,10.138,17.600,52.200,176.300,-0.828,2.875,0.422
2019-06-09-14:50:50.944876,0.680,-0.333,10.143,26.100,80.000,216.600,-0.391,2.961,0.172
2019-06-09-14:50:50.964616,0.668,-0.333,10.122,22.100,98.000,72.400,-0.258,3.055,0.492
2019-06-09-14:50:50.984164,0.644,-0.340,10.126,24.800,111.500,102.300,-0.688,3.102,0.266
2019-06-09-14:50:51.003564,0.670,-0.328,10.155,23.800,112.600,110.100,-1.078,2.758,0.531
2019-06-09-14:50:51.023006,0.677,-0.342,10.083,10.300,88.200,141.100,-0.625,2.992,0.367
2019-06-09-14:50:51.042456,0.656,-0.337,10.134,19.000,112.600,128.700,-1.078,2.617,0.445
2019-06-09-14:50:51.061854,0.629,-0.330,10.117,24.000,110.000,74.300,-0.703,2.586,0.398
2019-06-09-14:50:51.081356,0.660,-0.309,10.138,32.900,121.600,27.400,-0.586,2.797,0.461
2019-06-09-14:50:51.100748,0.668,-0.330,10.136,36.200,142.600,62.200,-1.016,2.922,0.391
2019-06-09-14:50:51.120132,0.646,-0.333,10.122,10.000,58.900,32.500,-0.352,2.922,0.133
2019-06-09-14:50:51.139659,0.646,-0.325,10.110,24.400,127.700,130.600,-0.906,2.836,0.688
2019-06-09-14:50:51.159049,0.663,-0.321,10.114,1.500,61.800,144.800,-0.367,2.789,0.234
2019-06-09-14:50:51.178407,0.644,-0.318,10.107,17.200,97.100,112.000,-0.492,2.906,0.398
2019-06-09-14:50:51.197864,0.636,-0.311,10.131,15.700,90.100,109.800,-0.547,2.773,0.367
2019-06-09-14:50:51.218532,0.689,-0.309,10.107,16.300,92.000,115.000,-0.414,2.820,0.523
2019-06-09-14:50:51.241285,0.658,-0.309,10.110,14.900,95.900,133.600,-0.555,3.164,0.484
2019-06-09-14:50:51.261437,0.641,-0.304,10.107,7.600,74.300,134.100,-0.758,2.758,0.188
2019-06-09-14:50:51.280990,0.675,-0.290,10.086,5.200,61.500,104.000,-0.953,2.898,0.461
2019-06-09-14:50:51.300529,0.668,-0.301,10.088,8.700,82.900,140.400,-0.398,2.859,0.312
2019-06-09-14:50:51.319993,0.620,-0.287,10.055,10.800,100.200,168.800,-0.258,3.117,0.438
2019-06-09-14:50:51.339560,0.641,-0.294,10.079,19.300,74.800,68.400,-0.539,2.820,0.398
2019-06-09-14:50:51.358997,0.665,-0.292,10.052,26.000,117.500,127.800,-0.656,2.836,0.391
2019-06-09-14:50:51.378403,0.629,-0.287,10.026,36.100,122.700,76.900,-0.898,2.750,0.438
2019-06-09-14:50:51.397873,0.634,-0.294,10.064,-9.600,40.500,168.500,-0.781,2.711,0.570
2019-06-09-14:50:51.417240,0.658,-0.285,10.047,11.200,106.300,212.200,-0.391,2.961,0.336
2019-06-09-14:50:51.436634,0.672,-0.280,10.081,4.300,82.400,205.800,-0.414,2.906,0.461
2019-06-09-14:50:51.456085,0.670,-0.301,10.105,9.800,59.200,87.600,-0.641,2.727,0.367
2019-06-09-14:50:51.476030,0.675,-0.337,10.150,10.900,85.300,153.500,-0.516,2.875,0.391
2019-06-09-14:50:51.495661,0.670,-0.321,10.110,11.700,69.700,117.400,-0.398,3.070,0.469
2019-06-09-14:50:51.515121,0.675,-0.328,10.107,15.600,77.100,120.400,-0.539,3.094,0.492
2019-06-09-14:50:51.534542,0.672,-0.357,10.160,11.600,52.000,69.900,-0.828,2.750,0.328
2019-06-09-14:50:51.554055,0.668,-0.292,10.105,9.000,49.200,83.100,-0.586,2.922,0.492
2019-06-09-14:50:51.573447,0.660,-0.325,10.160,9.300,58.700,119.600,-0.500,2.898,0.797
2019-06-09-14:50:51.592879,0.670,-0.340,10.129,21.500,74.100,92.200,-0.469,2.961,0.172
2019-06-09-14:50:51.612387,0.668,-0.342,10.114,22.200,75.000,93.700,-0.570,3.008,0.445
2019-06-09-14:50:51.631865,0.651,-0.316,10.124,28.700,95.200,130.700,-0.391,2.961,0.469
2019-06-09-14:50:51.651384,0.639,-0.364,10.126,17.400,98.200,186.400,-0.812,2.906,0.438
2019-06-09-14:50:51.670759,0.660,-0.328,10.131,21.500,83.100,139.000,-0.812,2.883,0.289
2019-06-09-14:50:51.690108,0.653,-0.325,10.083,20.100,85.600,146.100,-0.656,2.586,0.422
2019-06-09-14:50:51.709539,0.648,-0.328,10.086,9.800,61.700,141.900,-0.422,2.906,0.461
2019-06-09-14:50:51.729166,0.665,-0.337,10.148,9.700,57.300,133.800,-0.445,3.156,0.422
2019-06-09-14:50:51.748666,0.670,-0.318,10.093,15.400,60.500,111.900,-0.789,2.617,0.461
2019-06-09-14:50:51.768537,0.675,-0.325,10.100,29.900,72.100,80.900,-0.469,3.016,0.391
2019-06-09-14:50:51.788021,0.656,-0.323,10.124,16.200,107.000,224.100,-0.812,2.836,0.570
2019-06-09-14:50:51.807399,0.660,-0.304,10.071,-3.600,24.500,126.100,-0.969,2.758,0.375
2019-06-09-14:50:51.826805,0.653,-0.287,10.074,-4.700,44.100,161.200,-0.586,2.625,0.594
2019-06-09-14:50:51.846191,0.663,-0.309,10.098,-2.500,53.000,177.400,-0.430,3.055,0.547
2019-06-09-14:50:51.865674,0.656,-0.282,10.055,39.500,120.200,144.800,-0.375,3.047,0.305
2019-06-09-14:50:51.885064,0.680,-0.316,10.088,18.300,7.800,3.300,-0.773,2.875,0.367
2019-06-09-14:50:51.904430,0.639,-0.316,10.074,-13.400,16.800,155.500,-0.875,2.641,0.664
2019-06-09-14:50:51.923784,0.641,-0.304,10.076,32.900,50.300,32.300,-0.516,2.969,0.594
2019-06-09-14:50:51.943126,0.656,-0.316,10.088,-14.700,7.000,126.800,-0.594,2.758,0.461
2019-06-09-14:50:51.962564,0.660,-0.313,10.100,-2.000,73.600,250.500,-0.773,2.961,0.398
2019-06-09-14:50:51.982013,0.641,-0.354,10.134,-0.300,48.900,176.000,-0.617,2.688,0.602
2019-06-09-14:50:52.001718,0.653,-0.330,10.165,4.300,91.400,224.400,-0.508,2.859,0.422
2019-06-09-14:50:52.021223,0.675,-0.354,10.088,24.600,66.200,87.300,-0.688,2.945,0.414
2019-06-09-14:50:52.040698,0.648,-0.352,10.076,9.800,100.400,217.100,-0.656,2.961,0.578
2019-06-09-14:50:52.060157,0.646,-0.290,10.174,0.900,23.600,84.400,-0.750,2.797,0.305
2019-06-09-14:50:52.079797,0.687,-0.325,10.102,11.100,33.500,82.500,-0.727,2.875,0.391
2019-06-09-14:50:52.099375,0.680,-0.347,10.081,-1.900,31.800,114.800,-0.688,2.859,0.594
2019-06-09-14:50:52.118780,0.646,-0.352,10.124,21.000,54.300,95.800,-0.664,2.922,0.578
2019-06-09-14:50:52.138158,0.694,-0.342,10.100,25.300,81.700,125.200,-0.477,2.992,0.602
2019-06-09-14:50:52.163813,0.636,-0.345,10.160,13.900,36.400,102.900,-0.742,3.078,0.305
2019-06-09-14:50:52.183299,0.675,-0.325,10.143,8.300,20.200,86.000,-0.344,2.531,0.422
2019-06-09-14:50:52.211900,0.663,-0.321,10.107,7.800,19.800,88.100,-0.734,2.906,0.398
2019-06-09-14:50:52.231545,0.644,-0.249,10.035,20.800,65.700,115.700,-0.586,2.516,0.641
2019-06-09-14:50:52.251275,0.660,-0.313,10.055,20.900,44.600,95.400,-0.641,2.797,0.375
2019-06-09-14:50:52.270878,0.632,-0.282,10.016,4.600,18.100,93.600,-0.742,3.031,0.281
2019-06-09-14:50:52.290352,0.639,-0.266,10.055,13.200,65.500,155.800,-0.562,2.773,0.305
2019-06-09-14:50:52.309769,0.648,-0.325,10.067,13.500,60.100,149.100,-1.078,2.711,0.492
2019-06-09-14:50:52.329142,0.625,-0.280,10.086,14.800,56.600,153.200,-0.469,2.969,0.594
2019-06-09-14:50:52.348495,0.634,-0.290,10.045,13.200,57.500,143.800,-0.711,2.820,0.422
2019-06-09-14:50:52.367928,0.634,-0.251,10.047,14.700,56.600,148.000,-0.219,2.812,0.375
2019-06-09-14:50:52.387306,0.656,-0.278,10.069,16.300,60.800,153.300,-0.852,2.664,0.375
2019-06-09-14:50:52.406660,0.636,-0.266,10.083,13.300,24.500,85.900,-0.562,2.812,0.398
2019-06-09-14:50:52.426097,0.663,-0.292,10.102,29.700,83.000,166.800,-0.734,2.773,0.602
2019-06-09-14:50:52.445463,0.636,-0.309,10.024,29.300,88.000,174.400,-0.773,2.688,0.508
2019-06-09-14:50:52.464860,0.665,-0.318,10.074,11.000,85.500,216.800,-0.258,2.992,0.484
2019-06-09-14:50:52.484506,0.653,-0.313,10.069,10.000,0.100,50.500,-0.367,2.961,0.367
2019-06-09-14:50:52.504064,0.663,-0.292,10.086,6.600,71.800,207.300,-0.320,2.516,0.367
2019-06-09-14:50:52.523505,0.639,-0.280,10.035,22.700,38.100,92.300,-0.422,2.898,0.305
2019-06-09-14:50:52.542916,0.658,-0.318,10.055,16.600,96.900,225.000,-0.727,2.734,0.547
2019-06-09-14:50:52.562446,0.665,-0.249,9.992,14.300,15.200,75.500,-0.375,2.844,0.531
2019-06-09-14:50:52.581910,0.615,-0.294,10.047,-0.800,19.000,103.500,-0.453,2.906,0.664
2019-06-09-14:50:52.601367,0.627,-0.297,10.047,-0.300,20.100,108.700,-0.336,2.992,0.305
2019-06-09-14:50:52.620768,0.625,-0.297,10.126,20.800,98.600,217.100,-0.344,2.820,0.422
2019-06-09-14:50:52.640141,0.644,-0.268,10.035,21.700,71.700,137.800,-0.875,2.836,0.523
2019-06-09-14:50:52.659688,0.636,-0.285,10.040,-4.000,34.100,122.900,-0.898,2.672,0.375
2019-06-09-14:50:52.679159,0.656,-0.270,10.000,18.200,101.900,212.100,-0.398,2.789,0.523
2019-06-09-14:50:52.698538,0.670,-0.301,10.062,5.300,85.600,215.300,-0.781,2.883,0.484
2019-06-09-14:50:52.717902,0.687,-0.285,10.095,-4.400,38.600,132.500,-0.516,3.078,0.445
2019-06-09-14:50:52.737269,0.680,-0.333,10.028,16.700,88.400,187.600,-0.664,2.844,0.367
2019-06-09-14:50:52.756848,0.601,-0.287,10.055,8.900,58.300,146.800,-0.953,2.672,0.531
2019-06-09-14:50:52.776413,0.641,-0.270,10.045,8.600,62.300,158.900,-0.742,2.992,0.352
2019-06-09-14:50:52.795956,0.658,-0.261,9.966,8.600,58.200,149.000,-0.570,2.578,0.219
2019-06-09-14:50:52.815350,0.634,-0.199,10.007,11.700,56.900,150.600,-0.133,2.930,0.352
2019-06-09-14:50:52.834732,0.627,-0.297,10.031,10.200,64.300,162.300,-0.664,2.922,0.422
2019-06-09-14:50:52.854167,0.677,-0.311,10.047,17.900,57.200,124.700,-0.781,2.711,0.523
2019-06-09-14:50:52.873565,0.665,-0.342,10.158,12.000,69.100,163.100,-0.578,3.164,0.266
2019-06-09-14:50:52.892994,0.663,-0.383,10.107,20.100,42.400,92.200,-0.664,2.898,0.266
2019-06-09-14:50:52.912442,0.682,-0.373,10.114,25.000,56.400,104.400,-0.648,3.016,0.414
2019-06-09-14:50:52.931820,0.625,-0.376,10.095,18.000,122.700,261.500,-0.594,2.969,0.508
2019-06-09-14:50:52.951247,0.665,-0.340,10.172,0.500,26.000,121.700,-0.305,2.906,0.484
2019-06-09-14:50:52.971053,0.677,-0.294,10.057,17.100,96.900,208.900,-0.789,3.141,0.352
2019-06-09-14:50:52.990590,0.684,-0.321,10.148,-14.200,-8.800,73.900,-0.766,3.070,0.375
2019-06-09-14:50:53.009986,0.646,-0.359,10.107,28.500,56.500,93.700,-0.828,2.836,0.219
2019-06-09-14:50:53.029466,0.670,-0.323,10.083,16.600,29.300,89.800,-1.133,3.016,0.547
2019-06-09-14:50:53.048850,0.663,-0.335,10.076,23.000,92.600,210.400,-0.375,3.102,0.336
2019-06-09-14:50:53.068258,0.644,-0.306,10.074,26.100,88.100,184.400,-0.633,2.797,0.352
2019-06-09-14:50:53.087813,0.651,-0.297,10.110,35.900,120.900,221.400,-0.922,2.836,0.734
2019-06-09-14:50:53.107235,0.680,-0.328,9.976,3.900,92.000,252.600,-0.227,2.961,0.438
2019-06-09-14:50:53.126610,0.601,-0.301,9.988,1.100,84.800,241.000,-0.664,2.812,0.641
2019-06-09-14:50:53.146057,0.622,-0.275,10.012,-11.900,13.900,133.600,-0.562,2.789,0.461
2019-06-09-14:50:53.165440,0.591,-0.325,10.074,5.800,98.300,258.200,-0.438,2.703,0.289
2019-06-09-14:50:53.184808,0.632,-0.256,10.009,34.400,63.400,121.400,-0.242,2.875,0.312
2019-06-09-14:50:53.204300,0.658,-0.256,10.069,31.400,119.900,233.000,-0.477,3.078,0.617
2019-06-09-14:50:53.223670,0.653,-0.321,10.045,20.500,90.200,210.100,-0.852,2.789,0.398
2019-06-09-14:50:53.246784,0.696,-0.309,10.102,37.000,83.400,154.600,-0.492,2.758,0.445
2019-06-09-14:50:53.266381,0.665,-0.256,10.074,2.500,-9.600,48.900,-0.633,2.812,0.555
2019-06-09-14:50:53.285994,0.677,-0.292,10.081,30.700,112.000,227.800,-0.445,2.984,0.422
2019-06-09-14:50:53.305539,0.646,-0.306,10.083,27.700,31.100,75.500,-0.664,3.047,0.570
2019-06-09-14:50:53.324954,0.644,-0.270,10.038,30.800,114.100,229.900,-0.688,3.070,0.531
2019-06-09-14:50:53.344330,0.668,-0.278,10.083,18.900,9.600,55.900,-1.031,2.961,0.328
2019-06-09-14:50:53.369871,0.625,-0.282,10.021,-11.000,41.100,183.100,-0.297,2.906,0.414
2019-06-09-14:50:53.389434,0.596,-0.242,9.976,7.700,12.300,75.800,-0.438,2.789,0.445
2019-06-09-14:50:53.408902,0.601,-0.292,9.961,7.700,98.100,262.200,-0.992,2.688,0.312
2019-06-09-14:50:53.428271,0.603,-0.266,9.949,7.700,90.700,248.000,-0.875,2.883,0.469
2019-06-09-14:50:53.447704,0.605,-0.285,10.038,-6.000,82.500,260.300,-0.875,2.930,0.469
2019-06-09-14:50:53.467077,0.632,-0.280,9.980,-13.300,56.100,212.100,-0.688,3.070,0.625
2019-06-09-14:50:53.486508,0.641,-0.249,10.028,16.600,-8.700,29.800,-0.445,2.773,0.492
2019-06-09-14:50:53.505995,0.622,-0.304,10.059,-17.600,-3.700,106.700,-0.305,2.984,0.469
2019-06-09-14:50:53.525387,0.601,-0.306,10.043,-5.300,80.600,257.100,-0.734,2.812,0.484
2019-06-09-14:50:53.544748,0.684,-0.309,10.069,41.000,112.700,205.100,-0.773,2.859,0.508
2019-06-09-14:50:53.564217,0.598,-0.263,10.033,-13.200,-21.200,69.800,-0.812,2.969,0.305
2019-06-09-14:50:53.583594,0.677,-0.287,10.098,30.400,24.600,65.600,-0.688,2.648,0.445
2019-06-09-14:50:53.603101,0.651,-0.333,10.050,-14.600,29.300,170.000,-0.461,2.859,0.469
2019-06-09-14:50:53.622524,0.622,-0.266,10.059,-0.800,-28.100,37.100,-0.203,2.984,0.211
2019-06-09-14:50:53.641885,0.720,-0.280,10.122,38.300,115.800,218.200,-0.508,2.789,0.422
2019-06-09-14:50:53.661327,0.677,-0.342,10.067,0.200,77.600,232.500,-0.789,2.758,0.281
2019-06-09-14:50:53.680678,0.670,-0.325,10.028,40.700,140.000,254.200,-0.773,2.984,0.469
2019-06-09-14:50:53.700024,0.658,-0.311,10.098,17.700,130.100,290.900,-0.734,2.906,0.242
2019-06-09-14:50:53.721556,0.656,-0.297,10.136,29.700,131.700,268.700,-0.797,3.047,0.648
2019-06-09-14:50:53.741386,0.617,-0.313,10.038,-10.400,44.600,184.300,-0.305,2.945,0.398
2019-06-09-14:50:53.761580,0.648,-0.287,10.024,-15.900,2.800,116.700,-0.789,2.992,0.328
2019-06-09-14:50:53.781244,0.648,-0.294,10.024,37.900,72.200,134.400,-0.508,2.898,0.328
2019-06-09-14:50:53.800674,0.663,-0.278,10.043,-12.900,-8.700,89.500,-0.977,3.008,0.398
2019-06-09-14:50:53.820158,0.636,-0.249,10.033,-18.900,7.100,121.000,-0.641,2.711,0.648
2019-06-09-14:50:53.839631,0.646,-0.270,10.021,16.000,-22.100,8.200,-1.078,2.961,0.523
2019-06-09-14:50:53.859005,0.644,-0.249,10.040,36.100,127.800,237.200,-0.516,2.883,0.289
2019-06-09-14:50:53.878379,0.670,-0.306,10.064,33.800,120.000,225.800,-0.414,2.836,0.258
2019-06-09-14:50:53.897845,0.634,-0.290,10.071,3.100,101.600,267.300,-0.570,2.844,0.234
2019-06-09-14:50:53.917284,0.646,-0.292,10.067,37.900,89.500,167.600,-0.445,2.906,0.438
2019-06-09-14:50:53.936654,0.620,-0.313,10.012,-5.100,80.700,246.200,-0.750,2.711,0.336
2019-06-09-14:50:53.956087,0.668,-0.227,10.012,19.000,10.300,51.500,-0.750,2.641,0.445
2019-06-09-14:50:53.975446,0.617,-0.278,9.940,9.700,119.100,282.700,-0.516,2.688,0.352
2019-06-09-14:50:53.994792,0.687,-0.280,10.033,-1.100,-15.700,43.300,-0.516,2.672,0.305
2019-06-09-14:50:54.014307,0.644,-0.282,10.004,6.400,-8.700,42.200,-0.023,2.789,0.156
2019-06-09-14:50:54.033725,0.641,-0.280,10.064,21.500,131.500,285.300,-0.664,2.930,0.461
2019-06-09-14:50:54.053078,0.632,-0.268,10.016,-13.800,4.400,123.800,-0.570,2.922,0.281
2019-06-09-14:50:54.072504,0.620,-0.225,10.091,38.900,79.700,147.700,-0.273,3.188,0.781
2019-06-09-14:50:54.091906,0.639,-0.333,10.035,9.200,-8.700,38.800,-0.727,2.844,0.211
2019-06-09-14:50:54.111298,0.670,-0.323,10.129,-16.700,39.400,184.200,-0.781,2.586,0.367
2019-06-09-14:50:54.130685,0.663,-0.330,10.091,34.100,48.100,104.100,-0.523,3.047,0.219
2019-06-09-14:50:54.150049,0.605,-0.287,10.045,-9.600,73.000,235.000,-0.617,2.648,0.219
2019-06-09-14:50:54.171378,0.569,-0.292,10.067,-7.200,-20.400,50.300,-0.633,2.820,0.367
2019-06-09-14:50:54.190868,0.663,-0.301,10.117,33.100,130.600,247.900,-0.750,2.883,0.367
2019-06-09-14:50:54.210234,0.653,-0.311,10.047,-0.800,34.500,146.400,-0.273,2.898,0.422
2019-06-09-14:50:54.229661,0.660,-0.306,10.040,18.700,12.300,71.300,-0.758,2.992,0.391
2019-06-09-14:50:54.249044,0.639,-0.342,10.062,8.600,23.200,101.600,-0.391,2.961,0.547
2019-06-09-14:50:54.268524,0.665,-0.297,10.081,34.800,46.900,95.000,-0.805,2.836,0.578
2019-06-09-14:50:54.287929,0.682,-0.325,10.083,-8.200,78.300,248.700,-0.648,3.211,0.398
2019-06-09-14:50:54.307320,0.629,-0.328,10.076,12.000,117.900,275.400,-0.820,3.031,0.672
2019-06-09-14:50:54.326749,0.646,-0.287,10.050,5.900,-14.300,34.200,-0.711,2.734,0.492
2019-06-09-14:50:54.346194,0.665,-0.292,10.071,16.000,128.800,289.700,-0.562,2.836,0.594
2019-06-09-14:50:54.365580,0.603,-0.251,10.055,3.900,-14.200,31.600,-0.305,2.906,0.336
2019-06-09-14:50:54.385026,0.613,-0.309,10.071,12.200,122.300,288.000,-0.867,3.031,0.414
2019-06-09-14:50:54.404388,0.629,-0.234,9.942,20.500,133.900,290.000,-0.961,3.055,0.305
2019-06-09-14:50:54.423828,0.644,-0.280,10.028,-0.100,105.300,278.300,-0.539,2.859,0.555
2019-06-09-14:50:54.443228,0.663,-0.292,10.064,36.200,48.200,95.800,-0.680,2.711,0.469
2019-06-09-14:50:54.462590,0.680,-0.301,10.050,38.100,90.100,159.100,-0.680,2.672,0.602
2019-06-09-14:50:54.481936,0.644,-0.292,10.040,36.800,121.200,217.300,-0.789,2.617,0.336
2019-06-09-14:50:54.501421,0.620,-0.345,10.074,-16.600,14.700,150.000,-0.805,2.898,0.414
2019-06-09-14:50:54.520880,0.672,-0.347,10.086,-10.900,64.500,228.400,-0.867,3.117,0.570
2019-06-09-14:50:54.540362,0.632,-0.352,10.146,24.800,17.800,56.700,-0.008,2.922,0.469
2019-06-09-14:50:54.565577,0.653,-0.285,10.083,35.400,126.500,230.100,-0.109,2.961,0.398
2019-06-09-14:50:54.585145,0.656,-0.275,10.045,-15.000,-18.000,67.400,-0.945,2.883,0.438
2019-06-09-14:50:54.604603,0.598,-0.256,9.973,36.300,133.800,244.100,-0.578,3.016,0.367
2019-06-09-14:50:54.624110,0.632,-0.282,10.035,-14.400,-18.700,61.100,-0.367,2.812,0.445
2019-06-09-14:50:54.643564,0.687,-0.256,10.031,40.400,68.300,122.100,-0.570,2.602,0.523
2019-06-09-14:50:54.662941,0.656,-0.299,10.102,-17.500,33.300,190.100,-0.492,2.859,0.445
2019-06-09-14:50:54.682383,0.651,-0.294,10.079,5.300,-28.000,10.900,-0.828,2.711,0.648
2019-06-09-14:50:54.701761,0.641,-0.278,10.014,42.100,85.700,142.700,-0.547,2.969,0.492
2019-06-09-14:50:54.721212,0.641,-0.213,10.031,24.800,-0.800,31.600,-0.305,2.773,0.312
2019-06-09-14:50:54.740650,0.658,-0.301,10.114,19.500,147.100,310.900,-0.562,2.859,0.281
2019-06-09-14:50:54.760168,0.672,-0.321,10.064,29.900,149.300,289.900,-0.148,2.820,0.375
2019-06-09-14:50:54.779666,0.636,-0.311,10.038,41.700,129.800,220.400,-0.336,3.008,0.312
2019-06-09-14:50:54.799065,0.632,-0.309,10.033,-22.000,-12.600,84.900,-0.344,2.820,0.398
2019-06-09-14:50:54.818437,0.627,-0.278,10.079,41.500,148.700,263.000,-0.750,2.922,0.547
2019-06-09-14:50:54.837972,0.672,-0.278,10.038,-11.400,71.800,247.800,-0.789,3.141,0.367
2019-06-09-14:50:54.857393,0.660,-0.366,10.160,-15.000,69.600,246.900,-0.492,2.922,0.305
2019-06-09-14:50:54.876768,0.648,-0.285,10.083,40.200,70.600,116.100,-0.422,2.836,0.523
2019-06-09-14:50:54.896132,0.711,-0.258,10.102,47.100,95.700,157.700,-0.977,3.031,0.492
2019-06-09-14:50:54.915481,0.653,-0.268,9.985,41.300,68.100,117.200,-0.875,2.750,0.414
2019-06-09-14:50:54.934829,0.605,-0.275,10.002,-19.000,24.000,180.400,-0.664,2.961,0.328
2019-06-09-14:50:54.954408,0.615,-0.290,10.004,-21.400,7.200,143.500,-0.586,2.797,0.242
2019-06-09-14:50:54.973851,0.689,-0.256,10.033,43.900,125.800,220.300,-1.047,2.773,0.469
2019-06-09-14:50:54.993224,0.617,-0.285,10.028,-20.500,16.900,166.500,-0.953,3.031,0.305
2019-06-09-14:50:55.012601,0.653,-0.273,10.059,19.400,-26.300,7.300,-0.484,2.789,0.367
2019-06-09-14:50:55.031975,0.663,-0.256,10.040,41.400,58.800,101.800,-0.664,3.250,0.219
2019-06-09-14:50:55.051449,0.648,-0.268,10.047,38.800,38.500,75.900,-0.305,2.898,0.328
2019-06-09-14:50:55.070899,0.651,-0.285,9.971,7.200,125.800,311.400,-0.508,2.930,0.469
2019-06-09-14:50:55.090314,0.672,-0.357,10.081,9.500,130.200,315.000,-0.555,3.031,0.688
2019-06-09-14:50:55.109723,0.677,-0.335,10.083,-5.500,92.300,286.100,-0.562,2.773,0.398
2019-06-09-14:50:55.129116,0.651,-0.342,10.169,40.600,47.700,87.600,-0.508,2.961,0.328
2019-06-09-14:50:55.148561,0.670,-0.340,10.129,-17.100,39.800,215.700,-0.812,2.703,0.438
2019-06-09-14:50:55.167946,0.648,-0.340,10.088,38.200,63.600,113.400,-0.375,2.969,0.523
2019-06-09-14:50:55.187310,0.660,-0.299,10.141,8.000,122.100,295.300,-0.383,3.070,0.445
2019-06-09-14:50:55.208632,0.713,-0.352,10.057,43.500,132.600,233.700,-0.906,2.836,0.484
2019-06-09-14:50:55.228101,0.639,-0.330,10.162,14.900,-35.500,-3.300,-1.125,2.883,0.266
2019-06-09-14:50:55.249855,0.625,-0.285,10.138,-1.600,104.300,299.300,-0.391,2.789,0.438
2019-06-09-14:50:55.269530,0.651,-0.318,10.021,28.600,-1.800,27.800,-0.445,2.930,0.555
2019-06-09-14:50:55.288972,0.660,-0.349,10.122,-13.600,46.300,219.900,0.109,2.852,0.539
2019-06-09-14:50:55.308455,0.675,-0.292,10.031,36.800,146.100,278.800,-0.422,2.961,0.461
2019-06-09-14:50:55.327937,0.622,-0.364,10.079,-4.000,-41.500,8.000,-0.594,2.969,0.531
2019-06-09-14:50:55.347331,0.634,-0.328,10.136,-11.900,-38.500,23.400,-0.344,2.875,0.578
2019-06-09-14:50:55.372422,0.617,-0.301,10.098,-12.100,64.200,246.300,-0.773,2.703,0.195
2019-06-09-14:50:55.391953,0.684,-0.297,10.047,44.100,64.100,112.500,-0.406,2.992,0.391
2019-06-09-14:50:55.411350,0.653,-0.316,10.169,43.800,124.700,220.600,-0.445,2.898,0.445
2019-06-09-14:50:55.430730,0.684,-0.347,10.102,-8.900,75.100,260.500,-0.953,2.859,0.594
2019-06-09-14:50:55.450169,0.634,-0.357,10.057,-13.900,52.400,225.200,-0.797,3.055,0.352
2019-06-09-14:50:55.469638,0.658,-0.321,10.110,-12.100,-30.500,42.600,-1.164,2.906,0.281
2019-06-09-14:50:55.489005,0.646,-0.270,10.012,38.900,58.200,102.000,-0.266,2.750,0.547
2019-06-09-14:50:55.508365,0.615,-0.278,9.990,-18.900,29.200,181.700,-0.820,3.070,0.594
2019-06-09-14:50:55.527833,0.620,-0.292,9.983,5.900,-36.700,12.200,-0.438,2.906,-0.102
2019-06-09-14:50:55.547263,0.680,-0.282,10.043,34.400,43.000,84.100,-0.797,3.047,0.445
2019-06-09-14:50:55.566650,0.692,-0.282,10.035,-10.300,43.100,212.100,-0.469,2.859,0.523
2019-06-09-14:50:55.586085,0.629,-0.258,10.019,40.900,88.600,160.100,-0.594,2.945,0.445
2019-06-09-14:50:55.605519,0.660,-0.290,10.100,38.900,110.000,204.600,-0.477,2.992,0.289
2019-06-09-14:50:55.624916,0.625,-0.318,9.988,6.800,124.000,300.300,-0.750,2.750,0.672
2019-06-09-14:50:55.644359,0.629,-0.299,10.009,-0.300,107.500,289.200,-0.492,3.047,0.281
2019-06-09-14:50:55.663781,0.603,-0.309,10.086,-8.600,78.700,257.700,-0.719,3.102,0.328
2019-06-09-14:50:55.683139,0.653,-0.206,10.067,23.300,13.000,44.000,-0.984,2.992,0.531
2019-06-09-14:50:55.702480,0.651,-0.290,9.997,15.900,14.400,65.700,-0.445,3.016,0.492
2019-06-09-14:50:55.721829,0.634,-0.270,9.995,24.100,36.600,88.800,-0.492,3.094,0.398
2019-06-09-14:50:55.741286,0.699,-0.316,10.100,-11.100,33.000,155.300,-0.633,2.883,0.484
2019-06-09-14:50:55.764569,0.627,-0.304,10.031,19.400,105.600,237.300,-0.539,2.758,0.438
2019-06-09-14:50:55.784393,0.636,-0.278,10.067,-3.900,63.200,216.400,-0.664,2.727,0.281
2019-06-09-14:50:55.803861,0.670,-0.261,10.014,24.200,97.200,196.000,-0.656,2.789,0.375
2019-06-09-14:50:55.823301,0.636,-0.266,10.052,19.400,105.200,225.700,-0.883,3.250,0.602
2019-06-09-14:50:55.842710,0.598,-0.309,9.990,1.800,76.600,236.100,-0.648,3.047,0.492
2019-06-09-14:50:55.862292,0.675,-0.282,10.019,0.200,79.200,239.800,-0.320,2.836,0.367
2019-06-09-14:50:55.881776,0.629,-0.311,10.052,-8.300,23.500,131.800,-0.852,2.727,0.289
2019-06-09-14:50:55.901280,0.680,-0.273,10.071,13.700,104.800,238.700,-0.539,2.992,0.281
2019-06-09-14:50:55.920697,0.651,-0.244,9.976,24.900,49.300,111.300,-0.219,2.812,0.492
2019-06-09-14:50:55.940082,0.660,-0.292,10.088,12.100,9.500,69.200,-0.375,2.586,0.266
2019-06-09-14:50:55.959634,0.608,-0.299,10.067,-10.700,34.500,178.300,-0.398,2.945,0.422
2019-06-09-14:50:55.979068,0.660,-0.311,10.004,-13.800,29.400,170.300,-0.422,2.625,0.234
2019-06-09-14:50:55.998451,0.677,-0.311,10.124,-5.200,-14.000,58.900,-0.328,2.844,0.469
2019-06-09-14:50:56.017960,0.646,-0.304,10.050,37.100,111.100,201.700,-0.547,2.844,0.523
2019-06-09-14:50:56.037375,0.665,-0.249,10.059,5.300,-15.900,32.600,-0.633,3.070,0.422
2019-06-09-14:50:56.056770,0.613,-0.287,10.055,12.000,135.400,297.800,-1.125,3.094,0.352
2019-06-09-14:50:56.076236,0.632,-0.249,10.057,-21.400,4.000,111.500,-0.664,2.625,0.414
2019-06-09-14:50:56.095671,0.632,-0.340,10.086,16.600,123.000,270.100,-0.781,2.906,0.578
2019-06-09-14:50:56.115088,0.620,-0.275,10.000,-3.700,27.600,129.000,-0.594,2.906,0.461
2019-06-09-14:50:56.134481,0.634,-0.268,10.019,32.800,133.300,280.800,-0.711,2.812,0.445
2019-06-09-14:50:56.153871,0.603,-0.285,10.014,-11.700,38.000,194.100,-0.586,2.703,0.484
2019-06-09-14:50:56.173315,0.692,-0.304,10.107,30.400,11.200,56.600,-0.297,2.844,0.242
2019-06-09-14:50:56.192706,0.672,-0.316,10.014,0.900,-32.900,27.900,-0.594,2.961,0.312
2019-06-09-14:50:56.212158,0.601,-0.285,10.024,-16.400,-8.400,93.400,-0.008,3.023,0.492
2019-06-09-14:50:56.231682,0.656,-0.263,10.138,40.900,117.400,233.700,-0.711,3.031,0.445
2019-06-09-14:50:56.251248,0.658,-0.256,9.992,12.800,-26.000,23.300,-0.812,2.969,0.578
2019-06-09-14:50:56.270752,0.641,-0.251,10.019,18.600,124.300,291.800,-0.461,2.820,0.312
2019-06-09-14:50:56.290188,0.660,-0.309,10.026,13.400,-23.500,26.800,-0.281,3.008,0.711
2019-06-09-14:50:56.309691,0.639,-0.258,10.086,-14.200,-10.600,84.000,-0.750,2.750,0.281
2019-06-09-14:50:56.329087,0.634,-0.309,10.033,16.700,-19.900,28.500,-0.836,2.672,0.234
2019-06-09-14:50:56.348469,0.670,-0.354,10.033,41.300,107.500,210.700,-0.711,2.922,0.461
2019-06-09-14:50:56.367942,0.689,-0.328,10.134,-5.500,-27.200,38.800,-0.609,2.930,0.508
2019-06-09-14:50:56.387351,0.651,-0.352,10.126,37.500,119.600,243.200,-0.758,2.758,0.234
2019-06-09-14:50:56.406730,0.653,-0.368,10.107,38.300,122.900,248.900,-0.922,2.703,0.484
2019-06-09-14:50:56.426157,0.665,-0.309,10.129,-1.700,89.000,267.800,-0.602,3.094,0.508
2019-06-09-14:50:56.445574,0.622,-0.297,10.069,37.800,85.700,166.300,-0.695,3.070,0.312
2019-06-09-14:50:56.465002,0.668,-0.297,10.059,10.300,40.200,137.900,-0.773,2.750,0.531
2019-06-09-14:50:56.484409,0.634,-0.333,10.114,-14.900,7.300,101.900,-0.297,3.008,0.312
2019-06-09-14:50:56.503791,0.658,-0.333,10.110,27.500,43.800,93.800,-0.711,2.930,0.492
2019-06-09-14:50:56.523196,0.665,-0.306,10.035,32.000,62.300,121.700,-1.023,2.836,0.555
2019-06-09-14:50:56.542595,0.636,-0.335,10.079,-10.900,-13.400,56.500,-0.609,2.703,0.617
2019-06-09-14:50:56.562071,0.634,-0.294,10.043,-2.900,101.500,273.900,-0.625,3.070,0.469
2019-06-09-14:50:56.582056,0.648,-0.301,10.091,-16.200,32.500,164.000,-0.922,2.727,0.125
2019-06-09-14:50:56.601726,0.670,-0.316,10.122,25.000,31.300,79.400,-0.438,2.688,0.289
2019-06-09-14:50:56.621268,0.658,-0.380,10.100,-14.700,21.300,132.100,-0.508,2.820,0.445
2019-06-09-14:50:56.640681,0.646,-0.311,10.155,15.900,109.600,261.600,-0.633,2.820,0.336
2019-06-09-14:50:56.660069,0.653,-0.294,10.057,0.500,88.100,254.100,-0.781,2.797,0.305
2019-06-09-14:50:56.679597,0.644,-0.297,10.059,25.600,90.900,179.200,-0.875,2.930,0.391
2019-06-09-14:50:56.698996,0.653,-0.246,9.988,9.100,14.900,79.100,-0.445,2.883,0.523
2019-06-09-14:50:56.720398,0.665,-0.273,10.086,24.500,106.400,209.100,-0.812,2.984,0.398
2019-06-09-14:50:56.739885,0.636,-0.313,10.033,12.900,14.200,74.900,-0.398,2.961,0.422
2019-06-09-14:50:56.759503,0.620,-0.261,10.050,6.400,105.500,251.900,-0.633,2.750,0.312
2019-06-09-14:50:56.779105,0.617,-0.282,9.995,30.700,69.800,137.400,-0.758,2.711,0.602
2019-06-09-14:50:56.798541,0.641,-0.275,9.985,5.700,0.500,61.000,-0.711,2.859,0.492
2019-06-09-14:50:56.818043,0.687,-0.318,10.069,24.800,34.500,88.100,-0.664,3.031,0.289
2019-06-09-14:50:56.837683,0.605,-0.330,10.150,4.600,105.400,261.800,-0.641,2.836,0.391
2019-06-09-14:50:56.857153,0.644,-0.328,10.150,25.400,29.200,80.100,-0.758,2.711,0.445
2019-06-09-14:50:56.876630,0.668,-0.328,10.141,31.300,61.900,123.300,-0.586,2.930,0.391
2019-06-09-14:50:56.896167,0.625,-0.263,10.093,-14.600,-6.300,79.300,-0.422,2.922,0.438
2019-06-09-14:50:56.915588,0.670,-0.349,10.126,33.100,95.900,179.900,-0.398,2.984,0.445
2019-06-09-14:50:56.936028,0.668,-0.366,10.131,28.800,141.700,282.500,-0.734,2.945,0.445
2019-06-09-14:50:56.957361,0.660,-0.359,10.098,-2.900,95.700,262.400,-0.398,2.883,0.328
2019-06-09-14:50:56.979134,0.625,-0.299,9.957,-16.300,36.700,179.800,-0.828,2.820,0.594
2019-06-09-14:50:56.998661,0.660,-0.285,9.990,-0.600,-22.700,29.000,-0.508,2.812,0.469
2019-06-09-14:50:57.018146,0.613,-0.275,10.069,9.600,132.100,297.800,-0.828,2.922,0.508
2019-06-09-14:50:57.037650,0.677,-0.321,10.055,28.200,133.900,266.700,-0.789,3.070,0.445
2019-06-09-14:50:57.057080,0.625,-0.306,10.009,-15.000,3.600,104.100,-0.945,2.984,0.211
2019-06-09-14:50:57.076632,0.639,-0.309,10.114,-6.700,76.200,235.500,-0.703,2.758,0.391
2019-06-09-14:50:57.096084,0.653,-0.345,10.091,12.600,118.400,280.600,-0.656,2.859,0.555
2019-06-09-14:50:57.115474,0.648,-0.299,10.014,24.700,46.400,100.500,-0.906,2.875,0.484
2019-06-09-14:50:57.134942,0.651,-0.258,10.076,-18.400,39.800,172.900,-0.555,3.016,0.445
2019-06-09-14:50:57.154392,0.677,-0.309,10.100,10.800,13.000,71.800,-1.047,2.859,0.312
2019-06-09-14:50:57.173821,0.629,-0.297,10.035,-11.400,-0.500,82.300,-0.250,3.031,0.422
2019-06-09-14:50:57.193210,0.598,-0.335,10.050,3.700,74.600,244.700,-0.586,2.859,0.469
2019-06-09-14:50:57.212568,0.665,-0.321,10.031,-1.500,60.800,222.400,-0.305,2.844,0.758
2019-06-09-14:50:57.231928,0.663,-0.299,10.016,29.300,94.400,207.700,-0.391,2.984,0.664
2019-06-09-14:50:57.251356,0.639,-0.287,9.995,0.000,61.300,222.600,-0.641,2.930,0.289
2019-06-09-14:50:57.270798,0.653,-0.290,10.069,27.300,46.100,115.100,-0.586,2.859,0.664
2019-06-09-14:50:57.290273,0.625,-0.323,10.043,29.500,93.700,203.000,-0.656,2.859,0.648
2019-06-09-14:50:57.309658,0.625,-0.280,10.059,-2.100,45.900,196.500,-0.539,2.898,0.328
2019-06-09-14:50:57.329022,0.639,-0.266,10.083,25.600,101.800,225.700,-0.273,2.797,0.547
2019-06-09-14:50:57.348379,0.658,-0.285,10.021,25.100,29.500,95.300,-0.156,2.883,0.445
2019-06-09-14:50:57.367835,0.653,-0.282,10.026,-7.300,10.600,131.100,-0.672,3.008,0.578
2019-06-09-14:50:57.387280,0.651,-0.299,10.095,13.300,106.800,259.900,-0.680,2.922,0.375
2019-06-09-14:50:57.406651,0.668,-0.266,10.035,-6.000,-14.100,73.300,-0.852,2.789,0.734
2019-06-09-14:50:57.426089,0.613,-0.299,10.069,23.600,121.100,264.100,-0.656,2.758,0.492
2019-06-09-14:50:57.445454,0.658,-0.335,10.083,19.500,-2.100,56.600,-0.758,3.055,0.234
2019-06-09-14:50:57.464856,0.620,-0.299,10.107,-11.100,5.900,124.800,-0.930,2.734,0.305
2019-06-09-14:50:57.484753,0.680,-0.297,10.093,21.000,7.400,65.100,-0.594,2.516,0.570
2019-06-09-14:50:57.504360,0.665,-0.313,10.105,-11.900,21.400,161.600,-0.562,2.898,0.672
2019-06-09-14:50:57.523824,0.648,-0.323,10.134,37.500,63.300,128.500,-1.070,2.984,0.547
2019-06-09-14:50:57.543269,0.658,-0.359,10.062,34.700,128.400,254.400,-0.852,2.898,0.602
2019-06-09-14:50:57.562675,0.648,-0.311,10.074,-14.100,-6.000,77.800,-0.688,2.906,0.461
2019-06-09-14:50:57.582021,0.680,-0.390,10.160,23.000,135.500,274.200,-0.617,2.961,0.461
2019-06-09-14:50:57.601612,0.682,-0.337,10.086,32.800,64.400,121.500,-0.617,2.898,0.570
2019-06-09-14:50:57.621101,0.680,-0.380,10.165,28.700,128.800,248.700,-0.367,2.984,0.305
2019-06-09-14:50:57.640486,0.660,-0.309,10.086,35.400,70.900,131.700,-0.828,2.711,0.414
2019-06-09-14:50:57.659847,0.634,-0.340,10.095,-17.900,-2.400,93.300,-0.758,2.992,0.398
2019-06-09-14:50:57.679219,0.605,-0.357,10.076,14.100,132.300,287.900,-0.953,2.812,0.523
2019-06-09-14:50:57.698638,0.665,-0.249,9.985,11.900,126.800,289.800,-0.734,2.969,0.414
2019-06-09-14:50:57.718005,0.591,-0.330,10.098,-4.200,-16.800,42.600,-0.609,2.906,0.461
2019-06-09-14:50:57.737353,0.641,-0.292,10.117,10.100,-9.200,40.300,-0.289,2.969,0.352
2019-06-09-14:50:57.756809,0.670,-0.292,10.057,-8.600,-13.900,57.600,-0.367,2.922,0.266
2019-06-09-14:50:57.776710,0.629,-0.292,10.088,-11.400,-25.400,39.500,-0.859,2.922,0.469
2019-06-09-14:50:57.796253,0.648,-0.294,10.071,33.500,83.300,160.000,-0.656,2.625,0.305
2019-06-09-14:50:57.815662,0.663,-0.294,10.019,-15.100,36.000,166.500,-0.969,2.797,0.438
2019-06-09-14:50:57.835029,0.644,-0.268,10.146,-16.400,24.100,144.100,-0.531,2.727,0.328
2019-06-09-14:50:57.854394,0.648,-0.321,10.112,-5.600,88.100,258.700,-0.531,2.922,0.438
2019-06-09-14:50:57.873787,0.648,-0.349,10.100,22.100,130.300,45.100,-0.195,2.648,0.484
2019-06-09-14:50:57.893220,0.713,-0.318,10.177,21.800,131.100,45.300,-0.852,2.898,0.336
2019-06-09-14:50:57.912608,0.665,-0.333,10.114,22.100,131.000,45.200,-0.383,3.055,0.289
2019-06-09-14:50:57.931962,0.711,-0.316,10.057,22.700,128.400,44.200,-0.516,2.906,0.641
2019-06-09-14:50:57.951338,0.658,-0.311,10.134,22.100,127.500,42.300,-0.484,2.930,0.258
2019-06-09-14:50:57.970707,0.634,-0.285,10.093,22.500,127.700,43.200,-0.703,2.961,0.578
2019-06-09-14:50:57.990072,0.668,-0.349,10.093,22.600,128.000,43.600,-0.812,2.836,0.523
2019-06-09-14:50:58.009596,0.653,-0.342,10.150,22.700,126.500,41.500,-0.836,2.664,0.422
2019-06-09-14:50:58.029077,0.653,-0.340,10.165,23.000,127.200,41.000,-0.734,2.836,0.414
2019-06-09-14:50:58.048454,0.660,-0.330,10.105,21.300,126.500,43.100,-0.781,2.383,0.688
2019-06-09-14:50:58.067938,0.672,-0.342,10.117,22.700,127.800,43.000,-0.680,2.875,0.328
2019-06-09-14:50:58.087546,0.620,-0.301,10.148,22.200,128.200,41.400,-0.930,2.789,0.594
2019-06-09-14:50:58.107010,0.675,-0.352,10.064,22.700,126.600,42.200,-0.547,2.820,0.594
2019-06-09-14:50:58.126398,0.668,-0.337,10.126,23.000,127.800,43.800,-0.250,2.812,0.492
2019-06-09-14:50:58.145852,0.653,-0.268,10.124,22.400,126.200,42.800,-0.367,2.664,0.352
2019-06-09-14:50:58.165230,0.682,-0.294,10.105,22.700,126.000,42.500,-0.758,3.008,0.469
2019-06-09-14:50:58.185017,0.699,-0.299,10.081,22.800,126.500,41.900,-0.664,2.922,0.336
2019-06-09-14:50:58.206705,0.627,-0.280,10.004,22.500,126.800,42.400,-0.516,2.883,0.352
2019-06-09-14:50:58.226195,0.663,-0.323,10.105,23.300,127.600,41.600,-0.906,3.102,0.414
2019-06-09-14:50:58.245555,0.656,-0.275,10.043,22.000,127.200,41.300,-0.539,3.102,0.531
2019-06-09-14:50:58.265181,0.603,-0.297,10.079,23.100,126.700,42.100,-0.539,2.578,0.438
2019-06-09-14:50:58.284672,0.644,-0.304,10.062,22.400,127.500,41.600,-0.852,2.641,0.422
2019-06-09-14:50:58.304155,0.672,-0.268,10.026,22.900,127.600,41.800,-0.469,2.812,0.258
2019-06-09-14:50:58.323565,0.634,-0.266,10.079,23.600,127.600,42.400,-0.672,3.008,0.211
2019-06-09-14:50:58.342928,0.648,-0.306,10.095,23.200,127.300,42.500,-0.328,3.094,0.688
2019-06-09-14:50:58.362374,0.660,-0.285,10.076,22.900,127.500,41.600,-0.594,2.875,0.688
2019-06-09-14:50:58.381763,0.636,-0.325,10.112,23.100,128.100,41.900,-0.602,3.031,0.328
2019-06-09-14:50:58.401236,0.663,-0.318,10.119,22.600,128.600,42.300,-0.578,3.094,0.281
2019-06-09-14:50:58.420674,0.675,-0.313,10.081,21.700,128.300,43.200,-0.539,2.820,0.727
2019-06-09-14:50:58.440041,0.644,-0.316,10.100,22.100,127.900,42.900,-0.727,2.750,0.375
2019-06-09-14:50:58.459475,0.653,-0.323,10.114,23.200,128.400,42.000,-0.711,2.875,0.664
2019-06-09-14:50:58.478840,0.660,-0.313,10.091,22.300,127.800,42.700,-0.125,2.703,0.367
2019-06-09-14:50:58.498220,0.672,-0.316,10.131,22.800,128.300,41.600,-0.703,2.883,0.281
2019-06-09-14:50:58.517783,0.641,-0.330,10.117,22.800,128.400,42.500,-0.539,2.859,0.492
2019-06-09-14:50:58.537193,0.665,-0.328,10.110,22.300,129.600,42.300,-0.711,2.789,0.438
2019-06-09-14:50:58.556559,0.687,-0.323,10.160,22.300,128.500,43.200,-0.344,2.516,0.617
2019-06-09-14:50:58.576013,0.653,-0.323,10.131,22.000,128.400,41.600,-0.273,2.875,0.523
2019-06-09-14:50:58.595620,0.646,-0.278,10.102,22.700,128.800,40.900,-0.492,3.016,0.391
2019-06-09-14:50:58.615047,0.646,-0.292,10.062,22.700,129.200,41.700,-0.320,2.922,0.461
2019-06-09-14:50:58.634432,0.636,-0.278,10.043,22.100,128.500,42.400,-0.836,2.820,0.367
2019-06-09-14:50:58.653805,0.651,-0.266,10.012,22.900,129.400,44.300,-0.539,2.961,0.438
2019-06-09-14:50:58.673155,0.658,-0.282,10.057,23.200,128.000,43.400,-0.586,2.586,0.508
2019-06-09-14:50:58.692505,0.632,-0.278,10.047,22.000,128.200,43.200,-0.766,3.070,0.461
2019-06-09-14:50:58.711846,0.615,-0.273,10.047,23.400,128.500,42.300,-0.469,2.789,0.492
2019-06-09-14:50:58.731353,0.646,-0.280,10.067,22.300,128.100,42.200,-0.797,3.227,0.500
2019-06-09-14:50:58.750779,0.653,-0.278,9.997,22.100,126.000,42.100,-0.227,2.789,0.641
2019-06-09-14:50:58.770285,0.634,-0.256,10.045,23.300,127.100,40.400,-0.859,2.641,0.375
2019-06-09-14:50:58.789704,0.648,-0.306,10.012,23.000,127.500,41.800,-0.516,2.836,0.469
2019-06-09-14:50:58.809076,0.658,-0.294,10.088,23.000,127.500,41.700,-0.680,2.898,0.445
2019-06-09-14:50:58.828498,0.656,-0.294,10.028,22.400,127.000,42.400,-0.633,2.930,0.469
2019-06-09-14:50:58.847877,0.665,-0.287,10.043,23.100,126.300,42.700,-0.594,3.070,0.234
2019-06-09-14:50:58.867236,0.639,-0.294,10.119,22.300,128.600,42.700,-0.586,2.859,0.234
2019-06-09-14:50:58.886588,0.656,-0.285,10.038,22.600,128.000,42.400,-0.656,2.820,0.422
2019-06-09-14:50:58.906097,0.658,-0.290,10.071,23.000,127.900,42.600,-0.656,2.859,0.523
2019-06-09-14:50:58.925560,0.653,-0.318,10.057,22.700,129.100,41.400,-0.516,2.906,0.375
2019-06-09-14:50:58.945042,0.641,-0.311,10.086,23.600,127.000,41.500,-0.680,2.969,0.523
2019-06-09-14:50:58.964418,0.634,-0.318,10.081,22.600,127.600,43.200,-0.492,2.688,0.508
2019-06-09-14:50:58.984259,0.656,-0.306,10.095,21.800,126.600,41.500,-0.992,2.859,0.422
2019-06-09-14:50:59.003723,0.646,-0.270,10.062,23.200,127.800,42.300,-0.484,2.836,0.414
2019-06-09-14:50:59.023169,0.656,-0.280,10.047,22.600,126.500,41.300,-0.836,2.688,0.188
2019-06-09-14:50:59.042576,0.644,-0.306,10.064,22.500,128.200,42.700,-1.164,2.883,0.422
2019-06-09-14:50:59.061967,0.656,-0.290,10.067,21.100,127.500,42.700,-0.344,2.836,0.469
2019-06-09-14:50:59.081586,0.651,-0.285,10.000,22.600,127.300,42.900,-0.703,2.797,0.531
2019-06-09-14:50:59.101087,0.620,-0.285,10.071,22.400,127.600,41.600,-0.750,2.836,0.648
2019-06-09-14:50:59.120479,0.644,-0.299,10.079,22.300,128.400,42.300,-0.703,2.727,0.391
2019-06-09-14:50:59.139945,0.639,-0.268,9.995,23.300,128.100,44.400,-0.359,2.992,0.492
2019-06-09-14:50:59.159410,0.658,-0.285,10.026,22.400,129.300,42.900,-0.852,2.789,0.703
2019-06-09-14:50:59.178793,0.646,-0.273,10.064,21.500,129.200,43.300,-0.469,2.875,0.391
2019-06-09-14:50:59.198163,0.629,-0.261,10.004,22.800,128.300,42.300,-0.633,2.703,0.352
2019-06-09-14:50:59.217634,0.660,-0.266,9.988,22.100,128.800,43.400,-0.773,2.844,0.398
2019-06-09-14:50:59.237072,0.622,-0.266,10.079,22.300,128.300,42.700,-0.523,3.102,0.234
2019-06-09-14:50:59.256830,0.629,-0.280,10.033,22.700,128.100,42.600,-0.391,2.922,0.438
2019-06-09-14:50:59.276387,0.656,-0.282,10.069,22.500,128.200,42.400,-0.609,2.820,0.375
2019-06-09-14:50:59.295997,0.668,-0.285,10.040,22.000,128.300,43.700,-0.836,2.812,0.492
2019-06-09-14:50:59.315420,0.658,-0.294,10.033,22.600,128.700,41.900,-0.570,3.008,0.391
2019-06-09-14:50:59.334849,0.665,-0.280,10.043,21.300,127.200,40.900,-0.852,2.688,0.625
2019-06-09-14:50:59.354334,0.658,-0.309,10.050,21.400,128.100,40.800,-0.453,3.141,0.305
2019-06-09-14:50:59.374383,0.656,-0.318,10.136,21.900,128.200,42.900,-0.484,2.812,0.188
2019-06-09-14:50:59.394076,0.677,-0.306,10.055,22.500,127.200,42.700,-0.539,2.820,0.508
2019-06-09-14:50:59.413470,0.646,-0.316,10.117,21.800,128.400,41.700,-0.375,2.930,0.508
2019-06-09-14:50:59.432909,0.653,-0.311,10.129,23.100,128.800,43.000,-0.680,2.641,0.492
2019-06-09-14:50:59.452408,0.668,-0.309,10.098,21.700,128.600,43.300,-0.781,3.047,0.422
2019-06-09-14:50:59.471807,0.656,-0.318,10.076,23.400,128.700,42.100,-0.469,2.820,0.266
2019-06-09-14:50:59.491277,0.634,-0.306,10.091,22.300,128.100,41.500,-0.586,2.969,0.336
2019-06-09-14:50:59.510745,0.658,-0.301,10.086,20.900,128.900,42.400,-0.305,2.820,0.570
2019-06-09-14:50:59.530169,0.641,-0.313,10.098,22.700,127.800,42.800,-0.727,2.750,0.336
2019-06-09-14:50:59.549694,0.636,-0.287,10.083,22.100,127.400,41.200,-0.547,3.094,0.594
2019-06-09-14:50:59.569084,0.651,-0.278,10.071,22.200,128.100,42.600,-0.469,3.016,0.508
2019-06-09-14:50:59.588487,0.648,-0.280,10.074,23.100,127.100,42.700,-0.703,2.836,0.594
2019-06-09-14:50:59.607926,0.653,-0.278,10.059,22.500,127.300,42.400,-0.594,2.945,0.461
2019-06-09-14:50:59.627326,0.634,-0.285,10.071,22.500,127.100,42.000,-0.516,3.094,0.367
2019-06-09-14:50:59.646760,0.653,-0.282,10.047,23.300,128.300,42.600,-0.562,2.734,0.438
2019-06-09-14:50:59.666132,0.648,-0.282,10.055,22.200,127.700,43.000,-1.000,2.773,0.570
2019-06-09-14:50:59.685483,0.627,-0.273,10.047,23.700,126.500,41.600,-0.688,3.070,0.398
2019-06-09-14:50:59.706802,0.648,-0.268,10.043,23.200,127.900,41.900,-0.750,2.688,0.352
2019-06-09-14:50:59.726268,0.656,-0.278,10.047,21.900,127.000,42.400,-0.789,2.922,0.438
2019-06-09-14:50:59.745697,0.646,-0.263,10.009,22.700,127.100,41.800,-0.445,2.922,0.133
2019-06-09-14:50:59.765256,0.641,-0.270,10.028,22.500,126.900,41.100,-0.648,3.031,0.578
2019-06-09-14:50:59.784957,0.639,-0.287,10.079,22.400,127.400,41.000,-0.594,2.859,0.352
2019-06-09-14:50:59.804475,0.636,-0.273,10.040,22.400,128.300,40.400,-0.781,2.930,0.484
2019-06-09-14:50:59.823890,0.639,-0.285,10.069,22.800,126.800,40.300,-0.469,2.836,0.305
2019-06-09-14:50:59.843460,0.682,-0.270,10.033,21.700,127.600,42.200,-0.859,2.836,0.148
2019-06-09-14:50:59.862898,0.670,-0.333,10.114,23.200,128.800,42.800,-0.781,2.961,0.391
2019-06-09-14:50:59.882370,0.668,-0.335,10.098,22.300,127.400,41.900,-0.594,2.875,0.438
2019-06-09-14:50:59.901805,0.656,-0.342,10.138,22.000,127.400,43.200,-0.438,2.984,0.445
2019-06-09-14:50:59.921277,0.660,-0.318,10.091,23.100,126.400,43.000,-0.375,2.812,0.492
2019-06-09-14:50:59.940673,0.641,-0.313,10.114,22.500,127.200,43.200,-0.758,2.961,0.438
2019-06-09-14:50:59.960108,0.644,-0.313,10.126,22.400,127.000,42.300,-0.398,3.016,0.484
2019-06-09-14:50:59.979712,0.665,-0.345,10.105,20.900,126.800,43.000,-0.445,3.117,0.352
2019-06-09-14:50:59.999163,0.634,-0.316,10.098,22.000,127.300,42.000,-0.812,2.812,0.398
2019-06-09-14:51:00.018575,0.646,-0.335,10.122,22.600,127.000,41.600,-0.461,2.922,0.531
2019-06-09-14:51:00.037951,0.625,-0.287,10.079,12.500,96.100,56.900,-0.586,2.844,0.461
2019-06-09-14:51:00.057389,0.648,-0.294,10.102,19.900,87.900,70.300,-0.445,2.961,0.492
2019-06-09-14:51:00.076837,0.658,-0.304,10.112,20.500,123.200,164.300,-0.672,3.016,0.602
2019-06-09-14:51:00.096253,0.665,-0.306,10.057,7.300,46.600,72.700,-0.688,2.859,0.328
2019-06-09-14:51:00.115642,0.677,-0.301,10.095,34.200,146.400,117.800,-0.656,2.883,0.555
2019-06-09-14:51:00.135006,0.668,-0.299,10.057,-2.600,40.100,141.200,-0.305,2.945,0.617
2019-06-09-14:51:00.154440,0.653,-0.306,10.083,2.900,44.900,115.000,-0.641,2.836,0.375
2019-06-09-14:51:00.174345,0.656,-0.280,10.067,21.500,103.300,108.200,-0.789,2.969,0.461
2019-06-09-14:51:00.194158,0.639,-0.282,10.028,23.400,103.800,105.800,-0.305,2.922,0.422
2019-06-09-14:51:00.213617,0.636,-0.297,10.100,22.400,103.500,130.600,-0.836,2.797,0.461
2019-06-09-14:51:00.232969,0.658,-0.309,10.079,10.300,77.400,142.800,-0.781,2.797,0.398
2019-06-09-14:51:00.252418,0.656,-0.309,10.141,16.400,74.900,91.500,-0.852,2.820,0.414
2019-06-09-14:51:00.271982,0.646,-0.335,10.117,14.100,75.900,99.000,-0.438,2.930,0.641
2019-06-09-14:51:00.291510,0.663,-0.328,10.146,18.600,79.700,82.100,-0.883,3.047,0.508
2019-06-09-14:51:00.310903,0.660,-0.318,10.126,12.900,73.100,116.800,-0.570,2.773,0.352
2019-06-09-14:51:00.330280,0.660,-0.328,10.141,29.600,116.300,117.900,-0.906,2.711,0.375
2019-06-09-14:51:00.349655,0.680,-0.325,10.155,23.400,91.000,88.700,-0.188,3.133,0.367
2019-06-09-14:51:00.369078,0.668,-0.318,10.146,14.900,62.000,83.000,-0.625,3.070,0.703
2019-06-09-14:51:00.388454,0.670,-0.354,10.129,2.200,81.000,232.900,-1.070,2.578,0.398
2019-06-09-14:51:00.407908,0.689,-0.330,10.129,-7.800,43.500,178.100,-0.789,2.797,0.352
2019-06-09-14:51:00.427292,0.656,-0.311,10.117,33.800,115.000,77.700,-0.242,2.945,0.367
2019-06-09-14:51:00.446651,0.646,-0.325,10.150,32.100,94.500,53.300,-0.664,2.898,0.438
2019-06-09-14:51:00.466153,0.648,-0.352,10.091,26.300,119.700,156.000,-0.977,3.031,0.414
2019-06-09-14:51:00.485549,0.658,-0.330,10.141,0.800,52.000,151.100,-0.375,2.641,0.438
2019-06-09-14:51:00.504906,0.665,-0.357,10.134,11.700,79.300,137.800,-0.492,3.031,0.367
2019-06-09-14:51:00.524383,0.670,-0.330,10.114,6.900,87.400,186.800,-0.203,2.898,0.414
2019-06-09-14:51:00.543771,0.636,-0.325,10.158,4.100,35.600,87.300,-0.898,2.930,0.391
2019-06-09-14:51:00.563141,0.682,-0.316,10.119,3.800,52.600,132.100,-0.438,2.750,0.523
2019-06-09-14:51:00.583139,0.644,-0.304,10.107,4.200,71.600,160.200,-0.492,2.750,0.445
2019-06-09-14:51:00.602709,0.656,-0.313,10.122,7.300,48.500,105.000,-0.250,2.898,0.328
2019-06-09-14:51:00.622167,0.663,-0.299,10.086,8.700,78.300,166.700,-0.250,2.930,0.258
2019-06-09-14:51:00.641661,0.658,-0.285,10.095,20.900,76.300,107.000,-0.492,3.016,0.617
2019-06-09-14:51:00.661130,0.656,-0.294,10.074,14.400,63.400,101.200,-0.422,2.875,0.422
2019-06-09-14:51:00.680583,0.648,-0.304,10.086,4.900,64.000,158.000,-0.133,2.586,0.328
2019-06-09-14:51:00.699953,0.634,-0.311,10.093,7.200,55.500,118.800,-0.992,2.672,0.531
2019-06-09-14:51:00.719415,0.644,-0.297,10.069,6.700,82.800,173.700,-0.375,2.797,0.492
2019-06-09-14:51:00.738794,0.665,-0.278,10.093,4.900,67.600,158.100,-0.727,2.758,0.461
2019-06-09-14:51:00.758368,0.658,-0.306,10.107,19.000,124.100,220.400,-0.266,2.789,0.547
2019-06-09-14:51:00.777953,0.627,-0.311,10.143,7.100,37.200,73.100,-0.609,2.844,0.391
2019-06-09-14:51:00.797380,0.672,-0.313,10.107,21.700,45.100,52.300,-0.562,2.922,0.438
2019-06-09-14:51:00.816754,0.672,-0.340,10.107,30.800,72.600,77.200,-0.773,2.930,0.531
2019-06-09-14:51:00.836134,0.639,-0.316,10.122,-6.600,23.200,127.600,-0.539,2.859,0.219
2019-06-09-14:51:00.855481,0.646,-0.328,10.131,35.400,119.800,164.700,-0.852,2.773,0.445
2019-06-09-14:51:00.874916,0.675,-0.318,10.141,-10.400,39.600,203.300,-0.438,2.984,0.570
2019-06-09-14:51:00.894351,0.658,-0.333,10.117,-8.500,-12.200,55.000,-0.422,2.773,0.414
2019-06-09-14:51:00.913749,0.644,-0.311,10.138,-14.700,4.100,113.900,-0.789,2.961,0.367
2019-06-09-14:51:00.933103,0.663,-0.330,10.131,-9.600,32.900,193.900,-0.609,2.727,0.531
2019-06-09-14:51:00.952498,0.703,-0.352,10.124,-5.000,56.800,228.400,-0.422,2.734,0.391
2019-06-09-14:51:00.971863,0.651,-0.328,10.181,-1.700,42.700,173.300,-0.758,2.859,0.156
2019-06-09-14:51:00.991451,0.675,-0.335,10.129,12.900,28.700,72.200,-1.148,2.578,0.438
2019-06-09-14:51:01.010878,0.620,-0.254,10.083,21.800,103.900,198.200,-0.594,2.711,0.461
2019-06-09-14:51:01.030267,0.660,-0.304,10.050,30.000,83.200,117.400,-0.836,2.961,0.508
2019-06-09-14:51:01.049641,0.646,-0.273,10.050,24.200,57.300,86.600,-0.281,3.055,0.648
2019-06-09-14:51:01.069057,0.641,-0.266,10.040,19.600,101.400,206.900,-0.180,2.758,0.422
2019-06-09-14:51:01.088545,0.636,-0.266,10.009,28.500,84.300,144.700,-0.406,3.031,0.438
2019-06-09-14:51:01.107950,0.646,-0.287,10.091,3.100,55.300,173.300,-0.539,2.750,0.234
2019-06-09-14:51:01.127320,0.646,-0.282,10.028,5.200,36.900,107.800,-0.508,2.898,0.242
2019-06-09-14:51:01.146693,0.627,-0.275,10.019,13.600,94.300,200.200,-0.633,2.945,0.664
2019-06-09-14:51:01.166138,0.627,-0.287,10.026,0.900,51.800,148.900,-0.969,2.844,0.594
2019-06-09-14:51:01.187637,0.644,-0.270,10.043,17.000,60.600,145.100,-0.883,2.641,0.398
2019-06-09-14:51:01.207125,0.620,-0.266,10.002,14.700,51.100,143.800,-0.805,2.789,0.375
2019-06-09-14:51:01.226494,0.658,-0.299,10.074,13.100,68.200,151.700,-0.734,2.930,0.336
2019-06-09-14:51:01.245952,0.653,-0.304,10.071,9.200,63.500,146.100,-0.289,2.648,0.664
2019-06-09-14:51:01.265384,0.653,-0.316,10.079,11.400,61.800,150.600,-0.680,2.859,0.438
2019-06-09-14:51:01.284898,0.656,-0.287,10.059,11.900,67.500,140.400,-0.789,2.945,0.289
2019-06-09-14:51:01.304322,0.648,-0.301,10.122,8.800,69.200,151.300,-0.250,3.016,0.469
2019-06-09-14:51:01.323683,0.636,-0.306,10.069,11.900,71.400,151.600,-0.820,3.016,0.672
2019-06-09-14:51:01.343050,0.663,-0.299,10.047,13.900,66.500,145.200,-0.945,2.984,0.555
2019-06-09-14:51:01.362442,0.677,-0.347,10.131,7.000,72.100,176.500,-0.203,2.906,0.461
2019-06-09-14:51:01.382454,0.663,-0.333,10.124,8.800,88.200,203.000,-0.711,3.055,0.289
2019-06-09-14:51:01.402029,0.648,-0.328,10.079,18.300,102.300,206.400,-0.664,2.969,0.602
2019-06-09-14:51:01.421547,0.658,-0.342,10.074,8.700,91.000,207.900,-0.508,2.789,0.445
2019-06-09-14:51:01.440908,0.672,-0.321,10.107,15.500,102.400,212.500,-0.641,2.883,0.422
2019-06-09-14:51:01.460270,0.660,-0.306,10.081,19.300,51.300,102.500,-0.547,3.055,0.625
2019-06-09-14:51:01.479629,0.641,-0.268,10.076,2.700,28.700,98.700,-0.586,2.797,0.617
2019-06-09-14:51:01.499055,0.627,-0.256,10.031,11.300,37.800,90.500,-0.641,2.844,0.617
2019-06-09-14:51:01.518496,0.636,-0.246,10.031,25.400,85.500,151.200,-0.688,2.922,0.547
2019-06-09-14:51:01.537884,0.651,-0.268,10.026,6.700,85.300,193.600,-0.445,3.070,0.352
2019-06-09-14:51:01.557260,0.627,-0.287,10.012,12.700,63.200,128.900,-0.492,2.727,0.336
2019-06-09-14:51:01.576626,0.646,-0.270,10.059,18.700,90.100,183.100,-0.945,2.898,0.555
2019-06-09-14:51:01.596408,0.641,-0.278,10.055,16.800,64.100,119.500,-0.266,2.859,0.133
2019-06-09-14:51:01.615949,0.632,-0.313,10.026,23.400,94.400,194.900,-0.375,3.133,0.469
2019-06-09-14:51:01.635358,0.632,-0.273,10.062,12.800,32.600,95.900,-0.398,2.797,0.414
2019-06-09-14:51:01.654733,0.632,-0.266,10.059,14.200,36.900,98.200,-0.469,2.898,0.398
2019-06-09-14:51:01.674264,0.593,-0.275,10.009,2.700,41.300,151.500,-1.258,2.844,0.188
2019-06-09-14:51:01.693650,0.639,-0.304,10.047,5.700,66.000,184.200,-0.836,2.969,0.508
2019-06-09-14:51:01.713073,0.634,-0.285,10.107,16.700,62.500,158.200,-0.383,3.078,0.594
2019-06-09-14:51:01.732438,0.653,-0.280,10.024,12.900,63.500,154.000,-0.469,2.703,0.242
2019-06-09-14:51:01.751866,0.625,-0.278,10.067,14.700,54.400,140.300,-0.352,2.961,0.312
2019-06-09-14:51:01.771507,0.658,-0.261,10.026,15.700,67.100,162.500,-0.805,2.836,0.492
2019-06-09-14:51:01.791421,0.622,-0.306,10.110,16.600,65.300,162.100,-0.344,2.930,0.367
2019-06-09-14:51:01.810952,0.646,-0.297,10.035,12.100,55.000,155.600,-0.539,2.875,0.672
2019-06-09-14:51:01.830339,0.641,-0.306,10.098,13.200,59.300,158.700,-0.516,2.906,0.414
2019-06-09-14:51:01.849717,0.622,-0.306,10.050,11.600,54.700,140.100,-0.570,2.789,0.477
2019-06-09-14:51:01.869123,0.641,-0.323,10.098,19.600,60.100,146.200,-0.531,2.758,0.664
2019-06-09-14:51:01.888513,0.672,-0.318,10.059,34.800,76.100,138.100,-0.227,2.758,0.594
2019-06-09-14:51:01.907939,0.672,-0.275,10.086,1.500,11.100,90.200,-0.508,2.922,0.469
2019-06-09-14:51:01.927335,0.658,-0.306,10.069,0.300,35.000,138.100,-0.469,2.930,0.398
2019-06-09-14:51:01.946697,0.613,-0.285,10.045,3.200,6.300,75.600,-0.266,2.945,0.367
2019-06-09-14:51:01.966064,0.622,-0.273,10.050,20.900,80.000,180.600,-1.078,2.961,0.594
2019-06-09-14:51:01.985425,0.646,-0.297,10.081,-0.700,58.000,186.800,-0.664,2.922,0.312
2019-06-09-14:51:02.004798,0.625,-0.290,10.016,20.600,111.000,222.200,-0.305,2.664,0.172
2019-06-09-14:51:02.024351,0.634,-0.244,10.074,0.400,15.600,78.700,-0.680,2.898,0.391
2019-06-09-14:51:02.043753,0.648,-0.297,10.014,20.400,108.500,221.200,-0.438,2.859,0.414
2019-06-09-14:51:02.063127,0.644,-0.213,10.002,23.400,68.300,129.700,-0.227,3.047,0.375
2019-06-09-14:51:02.082556,0.646,-0.258,10.064,-5.300,32.300,128.600,-0.688,2.758,0.312
2019-06-09-14:51:02.102105,0.632,-0.249,9.995,25.200,98.000,186.700,-0.680,2.969,0.336
2019-06-09-14:51:02.121668,0.634,-0.263,10.024,10.400,22.700,86.800,-0.852,2.672,0.172
2019-06-09-14:51:02.141146,0.620,-0.297,10.038,-1.000,60.600,188.500,-0.906,2.930,0.625
2019-06-09-14:51:02.160521,0.622,-0.309,10.000,-3.900,26.700,105.300,-0.828,2.797,0.445
2019-06-09-14:51:02.179877,0.639,-0.297,10.100,19.900,60.000,120.800,-0.766,3.008,0.242
2019-06-09-14:51:02.199220,0.641,-0.316,10.134,-2.500,20.500,97.200,-0.281,2.492,0.508
2019-06-09-14:51:02.218615,0.613,-0.294,10.081,6.000,72.900,190.000,-0.461,2.758,0.492
2019-06-09-14:51:02.237986,0.670,-0.335,10.102,14.400,60.600,152.900,-0.555,3.031,0.336
2019-06-09-14:51:02.257414,0.658,-0.323,10.155,8.700,86.200,196.700,-0.367,2.703,0.328
2019-06-09-14:51:02.276910,0.636,-0.335,10.129,9.500,72.000,173.700,-0.484,2.773,0.188
2019-06-09-14:51:02.296306,0.677,-0.294,10.069,12.600,55.100,141.900,-0.547,2.969,0.484
2019-06-09-14:51:02.315685,0.684,-0.328,10.129,14.000,53.600,139.600,-0.086,2.703,0.641
2019-06-09-14:51:02.335119,0.675,-0.333,10.098,10.800,54.000,137.800,-0.766,3.008,0.492
2019-06-09-14:51:02.354487,0.656,-0.349,10.081,9.800,45.400,134.500,-0.445,3.008,0.328
2019-06-09-14:51:02.373845,0.670,-0.337,10.093,11.100,54.600,159.600,-0.648,3.008,0.445
2019-06-09-14:51:02.393197,0.680,-0.328,10.088,14.200,45.600,136.800,-0.320,2.844,0.508
2019-06-09-14:51:02.412539,0.648,-0.261,10.064,25.300,81.100,191.800,-0.828,2.883,0.414
2019-06-09-14:51:02.431942,0.646,-0.325,10.059,24.300,66.500,157.900,-0.656,2.922,0.398
2019-06-09-14:51:02.451306,0.660,-0.270,10.100,23.700,69.900,169.700,-0.664,3.156,0.664
2019-06-09-14:51:02.470654,0.665,-0.345,10.071,21.000,50.000,123.000,-0.711,2.898,0.531
2019-06-09-14:51:02.490297,0.656,-0.294,10.098,6.900,36.700,137.900,-0.852,2.711,0.352
2019-06-09-14:51:02.509762,0.648,-0.345,10.069,19.100,79.100,197.400,-0.820,3.117,0.367
2019-06-09-14:51:02.529243,0.639,-0.287,10.059,21.600,75.300,184.000,-0.617,2.945,0.414
2019-06-09-14:51:02.548659,0.613,-0.268,10.000,7.700,33.500,133.300,-0.812,2.898,0.508
2019-06-09-14:51:02.568026,0.687,-0.333,10.112,17.500,52.600,128.300,-0.617,2.836,0.352
2019-06-09-14:51:02.588089,0.651,-0.359,10.098,41.400,107.600,193.200,-0.680,2.961,0.508
2019-06-09-14:51:02.607733,0.629,-0.282,10.067,-12.500,-17.700,77.000,-0.289,2.727,0.438
2019-06-09-14:51:02.627180,0.617,-0.340,10.174,-14.100,40.000,191.400,-0.188,3.203,0.273
2019-06-09-14:51:02.646579,0.680,-0.323,10.086,-15.300,-14.200,86.600,-0.227,2.727,0.281
2019-06-09-14:51:02.666098,0.648,-0.364,10.100,20.400,133.100,297.200,-0.242,2.969,0.422
2019-06-09-14:51:02.687444,0.675,-0.313,10.095,40.800,64.300,120.600,-0.516,2.586,0.617
2019-06-09-14:51:02.706916,0.660,-0.357,10.112,-18.200,35.200,198.300,-0.078,2.859,0.570
2019-06-09-14:51:02.726301,0.668,-0.333,10.100,12.000,92.700,233.700,-0.859,3.164,0.219
2019-06-09-14:51:02.745822,0.610,-0.392,10.155,-5.000,-37.000,13.300,-0.125,2.703,0.492
2019-06-09-14:51:02.765312,0.665,-0.328,10.110,28.200,123.000,255.900,-0.688,2.773,0.672
2019-06-09-14:51:02.784984,0.627,-0.340,10.069,-9.300,34.000,184.700,-0.312,3.102,0.367
2019-06-09-14:51:02.804442,0.634,-0.323,10.155,16.200,-3.400,48.800,-0.766,3.102,0.594
2019-06-09-14:51:02.823847,0.668,-0.337,10.069,9.500,-11.100,42.100,-0.398,2.836,0.219
2019-06-09-14:51:02.843357,0.663,-0.309,10.112,32.100,85.500,147.500,-0.375,2.773,0.445
2019-06-09-14:51:02.862756,0.641,-0.297,10.160,34.300,108.200,187.200,-0.297,2.906,0.398
2019-06-09-14:51:02.882164,0.639,-0.340,10.074,-7.200,80.200,243.100,-0.836,2.969,0.648
2019-06-09-14:51:02.901666,0.682,-0.321,10.071,35.100,105.400,182.300,-0.742,2.992,0.312
2019-06-09-14:51:02.921113,0.651,-0.309,10.122,-8.500,-8.800,55.700,-0.414,2.969,0.398
2019-06-09-14:51:02.940529,0.622,-0.352,10.112,-25.500,3.200,116.600,-0.945,2.773,0.492
2019-06-09-14:51:02.959905,0.658,-0.270,10.040,44.000,122.700,206.500,-0.742,3.055,0.438
2019-06-09-14:51:02.979570,0.615,-0.268,10.035,42.900,84.600,140.400,-0.422,3.008,0.336
2019-06-09-14:51:02.999507,0.625,-0.304,10.102,29.200,154.500,296.700,-0.922,2.875,0.547
2019-06-09-14:51:03.019002,0.641,-0.333,10.024,-0.700,120.000,308.100,-0.578,3.047,0.672
2019-06-09-14:51:03.038401,0.644,-0.342,10.107,-16.100,57.800,229.600,-0.891,3.008,0.352
2019-06-09-14:51:03.058020,0.634,-0.333,10.067,24.500,-1.700,23.700,-0.445,2.984,0.523
2019-06-09-14:51:03.077610,0.680,-0.304,10.047,18.900,146.700,310.400,-0.352,2.820,0.508
2019-06-09-14:51:03.097041,0.646,-0.323,10.129,-13.000,-5.300,87.100,-0.547,2.750,0.625
2019-06-09-14:51:03.116459,0.593,-0.385,10.071,-21.600,5.100,119.900,-0.562,2.922,0.508
2019-06-09-14:51:03.135939,0.713,-0.349,10.129,15.600,143.000,308.600,-0.688,3.016,0.336
2019-06-09-14:51:03.155397,0.648,-0.323,10.050,-21.100,5.600,119.700,-0.695,3.047,0.375
2019-06-09-14:51:03.174781,0.680,-0.349,10.102,36.600,57.400,99.500,-0.469,2.898,0.328
2019-06-09-14:51:03.194242,0.670,-0.383,10.189,-1.900,101.500,286.500,-0.516,3.203,0.383
2019-06-09-14:51:03.213620,0.632,-0.359,10.033,-6.300,67.400,226.800,-0.820,3.047,0.484
2019-06-09-14:51:03.232991,0.629,-0.287,10.079,-15.900,-9.600,92.700,-0.469,2.812,0.625
2019-06-09-14:51:03.252432,0.641,-0.340,10.124,-9.700,60.600,237.200,-0.641,2.945,0.422
2019-06-09-14:51:03.271990,0.629,-0.309,10.091,-4.300,-29.800,41.800,-0.461,2.859,0.602
2019-06-09-14:51:03.291499,0.699,-0.340,10.050,28.200,27.700,71.400,-0.594,3.180,0.492
2019-06-09-14:51:03.310881,0.613,-0.347,10.172,-14.000,-13.600,86.000,-0.609,2.820,0.148
2019-06-09-14:51:03.330253,0.636,-0.316,10.129,40.300,98.900,185.500,-0.469,2.469,0.312
2019-06-09-14:51:03.349714,0.651,-0.383,10.153,-10.900,54.700,211.500,-0.273,2.711,0.547
2019-06-09-14:51:03.369165,0.646,-0.323,10.064,-14.100,-9.400,94.600,-0.469,2.875,0.531
2019-06-09-14:51:03.388547,0.663,-0.378,10.138,-16.300,35.700,177.100,-0.422,2.734,0.266
2019-06-09-14:51:03.407900,0.694,-0.357,10.131,38.300,73.400,144.500,-0.500,3.102,0.258
2019-06-09-14:51:03.427263,0.680,-0.342,10.105,28.100,130.700,269.400,-0.555,3.180,0.188
2019-06-09-14:51:03.446613,0.613,-0.299,10.014,3.100,97.700,264.600,-0.305,3.094,0.234
2019-06-09-14:51:03.466090,0.656,-0.325,10.088,-7.300,-16.600,64.200,-1.172,2.648,0.484
2019-06-09-14:51:03.485541,0.730,-0.321,10.033,31.400,117.800,237.700,-0.734,3.141,0.617
2019-06-09-14:51:03.504894,0.636,-0.290,10.093,11.800,88.200,229.400,-0.484,2.773,0.336
2019-06-09-14:51:03.524356,0.668,-0.258,10.021,20.900,96.200,215.900,-0.516,2.836,0.352
2019-06-09-14:51:03.543748,0.644,-0.301,10.081,36.500,80.800,158.100,-0.469,2.758,0.594
2019-06-09-14:51:03.563188,0.632,-0.301,10.086,29.700,41.200,93.400,-0.617,3.031,0.414
2019-06-09-14:51:03.582576,0.644,-0.340,10.088,-7.700,64.500,220.500,-0.875,2.930,0.328
2019-06-09-14:51:03.602169,0.701,-0.340,10.148,-6.100,-10.200,67.600,-0.414,2.984,0.523
2019-06-09-14:51:03.621688,0.625,-0.294,10.026,7.400,-5.500,40.100,-0.586,2.797,0.617
2019-06-09-14:51:03.641150,0.653,-0.270,10.062,24.900,32.800,82.100,-0.898,2.688,0.555
2019-06-09-14:51:03.660527,0.670,-0.321,10.117,36.900,112.000,210.800,-0.438,2.836,0.305
2019-06-09-14:51:03.679946,0.653,-0.364,10.102,-12.400,2.000,107.800,-0.469,2.797,0.219
2019-06-09-14:51:03.699421,0.672,-0.316,10.102,30.000,115.200,222.100,-0.953,2.883,0.484
2019-06-09-14:51:03.718801,0.608,-0.330,10.045,-11.800,-1.900,103.900,-0.664,2.906,0.375
2019-06-09-14:51:03.738164,0.684,-0.313,10.102,31.300,113.700,220.500,-0.422,2.812,0.266
2019-06-09-14:51:03.757695,0.636,-0.285,10.052,20.200,125.100,271.600,-0.656,2.844,0.391
2019-06-09-14:51:03.777253,0.634,-0.282,10.040,27.400,36.700,92.000,-0.391,2.727,0.398
2019-06-09-14:51:03.797040,0.675,-0.366,10.098,-7.900,70.800,233.300,-0.484,2.711,0.422
2019-06-09-14:51:03.816526,0.639,-0.340,10.110,8.700,-0.800,47.000,-0.656,2.820,0.523
2019-06-09-14:51:03.835999,0.670,-0.297,10.126,-13.700,27.600,163.700,-0.172,2.750,0.578
2019-06-09-14:51:03.855377,0.663,-0.306,10.047,36.000,91.800,177.400,-0.492,3.141,0.469
2019-06-09-14:51:03.874833,0.680,-0.290,10.074,-5.200,81.200,253.600,-0.312,3.047,0.445
2019-06-09-14:51:03.894350,0.625,-0.294,10.024,2.000,79.500,220.800,-1.141,2.820,0.555
2019-06-09-14:51:03.913731,0.668,-0.297,10.019,32.700,114.800,224.700,-0.492,2.711,0.148
2019-06-09-14:51:03.933105,0.625,-0.256,9.985,-7.500,-12.700,72.000,-1.062,3.047,0.625
2019-06-09-14:51:03.952466,0.632,-0.258,10.079,-13.200,52.100,201.700,-0.547,2.906,0.414
2019-06-09-14:51:03.971826,0.656,-0.309,10.079,-12.100,53.100,200.600,-0.711,2.406,0.195
2019-06-09-14:51:03.991376,0.632,-0.239,10.019,30.900,98.000,200.100,-1.000,2.820,0.445
2019-06-09-14:51:04.010788,0.636,-0.266,10.033,31.400,116.400,229.400,-0.445,2.969,0.312
2019-06-09-14:51:04.030175,0.620,-0.215,9.983,-7.000,76.700,231.200,-0.656,2.758,0.422
2019-06-09-14:51:04.049627,0.660,-0.287,10.095,34.700,110.600,208.300,-0.609,2.750,0.523
2019-06-09-14:51:04.069032,0.658,-0.280,9.983,9.800,111.500,270.800,-0.359,3.031,0.617
2019-06-09-14:51:04.088624,0.663,-0.304,10.095,-11.500,2.200,115.400,-0.617,2.844,0.555
2019-06-09-14:51:04.108023,0.665,-0.304,10.086,32.400,124.100,239.700,-0.281,3.117,0.492
2019-06-09-14:51:04.127405,0.663,-0.323,10.055,-6.000,-17.200,56.300,-0.570,2.812,0.570
2019-06-09-14:51:04.146776,0.653,-0.292,10.079,28.400,132.900,267.800,-0.641,2.617,0.625
2019-06-09-14:51:04.168119,0.668,-0.299,10.067,29.300,33.000,85.000,-0.156,2.844,0.523
2019-06-09-14:51:04.188426,0.663,-0.337,10.088,-7.900,70.300,231.900,-0.953,2.562,0.367
2019-06-09-14:51:04.207939,0.682,-0.325,10.143,35.200,118.400,228.000,-0.531,2.820,0.445
2019-06-09-14:51:04.227314,0.622,-0.304,10.071,8.100,114.600,279.400,-0.430,3.008,0.758
2019-06-09-14:51:04.246685,0.625,-0.321,10.035,-0.800,95.500,264.100,-0.516,2.727,0.352
2019-06-09-14:51:04.266149,0.677,-0.306,10.117,32.200,124.100,246.500,-0.805,2.602,0.547
2019-06-09-14:51:04.285673,0.670,-0.359,10.102,-12.000,-8.500,78.100,-0.820,3.070,0.781
2019-06-09-14:51:04.305132,0.648,-0.232,10.143,28.000,130.900,267.300,-0.773,2.711,0.461
2019-06-09-14:51:04.324511,0.634,-0.297,10.047,29.200,66.800,141.900,-1.047,2.586,0.469
2019-06-09-14:51:04.344005,0.648,-0.246,9.957,16.300,16.200,75.000,-0.242,2.922,0.266
2019-06-09-14:51:04.363404,0.617,-0.261,10.067,-3.400,24.000,139.200,-0.391,2.984,0.375
2019-06-09-14:51:04.382892,0.660,-0.256,10.028,-5.700,-2.700,74.900,-0.516,2.992,0.398
2019-06-09-14:51:04.402424,0.615,-0.294,10.050,-2.600,48.300,180.900,-0.719,2.992,0.625
2019-06-09-14:51:04.421830,0.613,-0.290,9.980,24.400,55.400,129.100,-0.391,2.883,0.703
2019-06-09-14:51:04.441298,0.663,-0.292,10.105,37.900,65.600,128.600,-0.680,2.812,0.336
2019-06-09-14:51:04.460666,0.656,-0.287,10.057,12.200,92.400,241.300,-0.625,3.055,0.398
2019-06-09-14:51:04.480030,0.677,-0.292,10.021,23.300,51.000,120.800,-0.312,3.102,0.484
2019-06-09-14:51:04.499549,0.644,-0.301,10.045,-2.400,18.700,121.900,-1.094,2.945,0.414
2019-06-09-14:51:04.518988,0.634,-0.318,10.038,19.900,96.700,227.300,-0.727,2.664,0.398
2019-06-09-14:51:04.538381,0.617,-0.306,10.043,7.100,79.200,232.500,-0.734,3.117,0.438
2019-06-09-14:51:04.557858,0.663,-0.285,10.074,-2.200,14.300,113.600,-0.617,3.203,0.336
2019-06-09-14:51:04.577252,0.646,-0.285,10.095,23.900,53.600,125.100,-0.805,2.844,0.578
2019-06-09-14:51:04.596918,0.653,-0.287,10.038,23.800,94.000,211.400,-0.594,2.672,0.398
2019-06-09-14:51:04.616353,0.660,-0.275,10.081,13.700,11.400,85.200,-0.555,3.164,0.375
2019-06-09-14:51:04.635815,0.636,-0.266,10.064,18.200,20.000,87.000,-0.773,2.586,0.492
2019-06-09-14:51:04.655190,0.696,-0.325,10.059,27.500,92.800,190.000,-0.664,2.516,0.312
2019-06-09-14:51:04.674545,0.684,-0.342,10.062,2.400,69.800,224.500,-0.398,2.820,0.648
2019-06-09-14:51:04.693905,0.641,-0.340,10.167,-0.500,57.100,206.900,-0.617,3.031,0.508
2019-06-09-14:51:04.713349,0.703,-0.364,10.158,4.400,4.300,88.100,-0.594,2.930,0.328
2019-06-09-14:51:04.732733,0.663,-0.378,10.057,-4.200,38.800,180.800,-0.562,2.922,0.352
2019-06-09-14:51:04.752184,0.684,-0.311,10.098,6.800,8.100,87.800,-1.078,2.961,0.375
2019-06-09-14:51:04.771773,0.629,-0.278,10.002,12.900,95.700,236.500,-0.594,2.688,0.461
2019-06-09-14:51:04.791281,0.711,-0.275,10.064,18.300,1.400,45.100,-0.359,3.156,0.484
2019-06-09-14:51:04.810733,0.603,-0.280,10.062,15.700,19.000,87.000,-0.492,2.773,0.367
2019-06-09-14:51:04.830117,0.680,-0.313,10.059,1.000,71.400,224.200,-0.594,2.883,0.422
2019-06-09-14:51:04.849630,0.656,-0.297,10.052,17.000,104.200,237.800,-0.859,2.836,0.375
2019-06-09-14:51:04.869012,0.644,-0.347,10.074,-4.200,47.100,190.000,-0.469,2.844,0.445
2019-06-09-14:51:04.888379,0.672,-0.297,10.091,23.400,107.800,224.900,-0.750,2.797,0.156
2019-06-09-14:51:04.907894,0.644,-0.299,10.007,20.900,23.800,85.600,-0.727,2.922,0.375
2019-06-09-14:51:04.928615,0.656,-0.304,10.047,-10.100,27.400,157.000,-0.711,2.875,0.508
2019-06-09-14:51:04.956231,0.610,-0.246,10.031,-13.100,11.900,132.300,-0.633,2.906,0.711
2019-06-09-14:51:04.976190,0.636,-0.321,10.119,-10.100,-2.400,91.600,-0.438,2.820,0.328
2019-06-09-14:51:04.996323,0.627,-0.328,10.153,22.800,123.200,260.600,-0.805,2.945,0.461
2019-06-09-14:51:05.015982,0.646,-0.316,10.093,31.400,38.500,97.800,-0.539,3.055,0.492
2019-06-09-14:51:05.035446,0.675,-0.378,10.165,-13.700,-0.300,96.800,-0.953,2.922,0.414
2019-06-09-14:51:05.054902,0.713,-0.354,10.138,36.700,107.400,209.400,-0.195,2.625,0.492
2019-06-09-14:51:05.074414,0.656,-0.254,10.131,42.600,52.900,109.000,-0.641,2.789,0.336
2019-06-09-14:51:05.093917,0.625,-0.280,10.045,38.200,32.800,74.800,-0.617,3.102,0.570
2019-06-09-14:51:05.113460,0.663,-0.306,10.019,30.000,33.100,89.900,-0.789,2.961,0.508
2019-06-09-14:51:05.132903,0.656,-0.292,10.095,35.700,104.600,203.200,-0.781,2.930,0.523
2019-06-09-14:51:05.152435,0.675,-0.285,10.045,12.000,-7.900,46.500,-0.422,3.016,0.086
2019-06-09-14:51:05.171866,0.646,-0.330,10.074,-12.700,56.500,224.400,-0.375,2.836,0.578
2019-06-09-14:51:05.191384,0.617,-0.297,10.021,1.300,84.500,249.900,-0.562,2.930,0.289
2019-06-09-14:51:05.210847,0.648,-0.294,10.102,9.800,-22.400,18.000,-0.516,2.969,0.461
2019-06-09-14:51:05.230264,0.615,-0.275,9.971,17.700,5.000,57.500,-0.734,2.641,0.242
2019-06-09-14:51:05.249672,0.668,-0.285,10.040,26.400,121.900,252.300,-0.758,2.789,0.375
2019-06-09-14:51:05.269212,0.622,-0.282,10.067,-14.900,20.000,139.500,-0.547,2.898,0.328
2019-06-09-14:51:05.288644,0.663,-0.256,10.057,17.700,111.000,259.500,-0.836,2.703,0.547
2019-06-09-14:51:05.308143,0.670,-0.273,10.007,28.600,104.000,210.300,-0.469,3.047,0.688
2019-06-09-14:51:05.327724,0.644,-0.254,10.069,10.300,5.600,62.900,-0.344,2.859,0.594
2019-06-09-14:51:05.347138,0.636,-0.297,10.088,17.600,108.200,249.800,-0.641,2.922,0.523
2019-06-09-14:51:05.366538,0.651,-0.333,10.064,26.300,50.300,112.100,-0.367,2.797,0.508
2019-06-09-14:51:05.388208,0.660,-0.258,10.021,1.700,0.500,73.700,-0.883,2.844,0.445
2019-06-09-14:51:05.407979,0.653,-0.364,10.126,-11.100,15.700,129.500,-0.969,2.984,0.305
2019-06-09-14:51:05.427584,0.651,-0.313,10.093,-4.200,0.900,79.500,-0.430,3.070,0.328
2019-06-09-14:51:05.447009,0.617,-0.263,10.016,-0.500,83.500,245.500,-0.680,2.984,0.336
2019-06-09-14:51:05.466405,0.639,-0.325,10.122,-12.900,34.800,175.600,-0.297,2.703,0.461
2019-06-09-14:51:05.485882,0.684,-0.342,10.153,32.400,96.100,182.900,-0.828,2.984,0.312
2019-06-09-14:51:05.505287,0.636,-0.318,10.119,-13.700,25.600,160.700,-0.516,2.961,0.469
2019-06-09-14:51:05.524781,0.656,-0.306,10.093,-2.400,83.300,246.400,-0.859,2.812,0.625
2019-06-09-14:51:05.544303,0.670,-0.347,10.055,-14.500,15.600,138.200,-0.734,2.672,0.445
2019-06-09-14:51:05.563713,0.636,-0.290,10.169,24.100,30.600,79.400,-0.453,3.047,0.531
2019-06-09-14:51:05.583100,0.665,-0.268,10.062,32.900,66.600,129.300,-0.492,2.789,0.555
2019-06-09-14:51:05.602555,0.641,-0.275,10.009,-5.600,86.200,257.700,-0.148,2.750,0.281
2019-06-09-14:51:05.622023,0.672,-0.273,10.057,34.400,56.200,109.600,-0.531,2.969,0.156
2019-06-09-14:51:05.641552,0.668,-0.285,10.098,23.000,28.500,75.500,-0.180,2.992,0.398
2019-06-09-14:51:05.660958,0.644,-0.306,10.021,13.100,133.900,295.100,-0.469,2.797,0.523
2019-06-09-14:51:05.682534,0.646,-0.273,9.997,30.700,52.900,107.000,-1.336,2.922,0.352
2019-06-09-14:51:05.702086,0.639,-0.311,10.043,30.000,119.500,236.000,-0.609,2.930,0.641
2019-06-09-14:51:05.721670,0.596,-0.282,10.016,-14.200,51.500,200.900,-0.516,3.008,0.602
2019-06-09-14:51:05.741209,0.641,-0.261,10.038,32.400,120.300,241.400,-0.633,2.664,0.641
2019-06-09-14:51:05.760773,0.694,-0.278,10.102,23.600,21.800,65.100,-0.352,2.945,0.641
2019-06-09-14:51:05.780353,0.620,-0.249,10.074,-19.900,-0.400,98.400,-0.812,3.031,0.508
2019-06-09-14:51:05.799802,0.608,-0.292,10.057,2.300,102.400,269.500,-0.656,2.711,0.414
2019-06-09-14:51:05.819203,0.639,-0.273,9.978,-15.600,-13.300,63.400,-0.883,3.031,0.484
2019-06-09-14:51:05.838736,0.632,-0.230,10.016,8.300,-22.400,31.300,-0.547,2.930,0.414
2019-06-09-14:51:05.858226,0.639,-0.290,10.045,-1.300,-19.200,50.700,-0.578,3.078,0.336
2019-06-09-14:51:05.877813,0.648,-0.321,10.083,18.900,115.100,277.000,-0.836,3.078,0.727
2019-06-09-14:51:05.897246,0.651,-0.287,9.997,-11.600,15.800,134.400,-0.734,2.875,0.398
2019-06-09-14:51:05.916667,0.660,-0.270,10.083,16.100,-4.900,48.000,-0.445,2.797,0.438
2019-06-09-14:51:05.936138,0.668,-0.309,9.992,-11.100,32.800,174.500,-0.688,3.078,0.352
2019-06-09-14:51:05.955560,0.646,-0.270,10.086,34.900,71.000,145.000,-0.367,2.812,0.438
2019-06-09-14:51:05.974946,0.617,-0.297,10.052,-4.800,-6.300,75.500,-0.266,2.500,0.508
2019-06-09-14:51:05.994336,0.653,-0.330,10.093,7.800,86.300,256.400,-0.773,2.836,0.602
2019-06-09-14:51:06.013757,0.672,-0.273,10.081,30.200,74.400,159.800,-0.836,2.688,0.352
2019-06-09-14:51:06.033231,0.636,-0.311,10.076,29.100,85.700,183.900,-0.758,2.992,0.414
2019-06-09-14:51:06.052660,0.706,-0.278,10.062,-1.300,7.100,98.500,-0.398,2.961,0.688
2019-06-09-14:51:06.072193,0.660,-0.321,10.016,24.600,98.100,227.400,-0.664,2.992,0.492
2019-06-09-14:51:06.091727,0.660,-0.301,10.000,32.400,91.900,184.300,-0.773,2.797,0.602
2019-06-09-14:51:06.111219,0.560,-0.249,9.959,22.400,113.700,257.800,-0.844,3.055,0.484
2019-06-09-14:51:06.130636,0.629,-0.313,10.069,-6.500,32.200,168.000,-0.703,2.797,0.414
2019-06-09-14:51:06.150086,0.629,-0.290,10.021,-4.700,13.400,126.400,-0.547,2.836,0.672
2019-06-09-14:51:06.169564,0.648,-0.301,10.021,21.000,24.100,89.500,-0.375,2.883,0.758
2019-06-09-14:51:06.191572,0.663,-0.280,10.091,26.800,96.500,204.400,-0.664,2.875,0.547
2019-06-09-14:51:06.211266,0.672,-0.261,10.019,4.500,72.500,233.900,-0.734,2.617,0.492
2019-06-09-14:51:06.230778,0.684,-0.311,10.117,16.100,10.300,77.300,-0.383,3.117,0.508
2019-06-09-14:51:06.250270,0.648,-0.280,10.071,8.500,114.500,277.800,-1.016,2.859,0.492
2019-06-09-14:51:06.269822,0.670,-0.318,10.057,5.700,-31.800,23.800,-0.711,2.711,0.438
2019-06-09-14:51:06.289275,0.632,-0.251,10.062,28.300,119.900,245.600,-0.547,3.055,0.367
2019-06-09-14:51:06.308680,0.613,-0.244,10.012,-3.800,4.400,84.600,-0.922,2.797,0.305
2019-06-09-14:51:06.328082,0.629,-0.292,10.007,14.700,21.800,83.800,-0.398,2.898,0.641
2019-06-09-14:51:06.347644,0.639,-0.261,9.992,8.900,11.900,77.100,-0.570,3.094,0.594
2019-06-09-14:51:06.367073,0.629,-0.234,10.067,-4.200,6.200,91.700,-0.688,2.984,0.469
2019-06-09-14:51:06.386478,0.627,-0.263,9.997,28.500,111.500,212.200,-0.242,2.961,0.391
2019-06-09-14:51:06.405959,0.658,-0.304,9.980,16.700,7.300,58.600,-0.344,2.898,0.523
2019-06-09-14:51:06.425368,0.625,-0.256,10.071,32.700,115.900,215.900,-0.750,2.516,0.375
2019-06-09-14:51:06.444807,0.636,-0.261,10.014,21.500,130.000,262.100,-0.641,2.773,0.398
2019-06-09-14:51:06.464300,0.646,-0.280,9.985,-7.100,81.100,244.800,-0.195,2.844,0.445
2019-06-09-14:51:06.483700,0.677,-0.249,10.086,36.900,112.500,204.400,-0.664,2.844,0.641
2019-06-09-14:51:06.503073,0.629,-0.321,10.057,3.000,-24.400,30.000,-0.445,2.734,0.523
2019-06-09-14:51:06.522477,0.641,-0.325,10.081,-10.700,75.300,243.400,-0.484,2.664,0.594
2019-06-09-14:51:06.541866,0.648,-0.325,10.043,-9.900,82.000,250.300,-0.305,3.055,0.484
2019-06-09-14:51:06.561415,0.646,-0.297,10.033,15.900,-10.800,28.600,-0.516,3.094,0.617
2019-06-09-14:51:06.580833,0.677,-0.385,10.158,36.900,72.800,130.100,-0.438,2.859,0.367
2019-06-09-14:51:06.600715,0.668,-0.330,10.069,-6.100,-25.800,31.400,-0.305,3.055,0.523
2019-06-09-14:51:06.620224,0.680,-0.287,10.126,31.800,42.200,88.500,-0.758,2.883,0.578
2019-06-09-14:51:06.639665,0.658,-0.306,10.057,7.600,-18.200,25.200,-0.609,2.797,0.531
2019-06-09-14:51:06.659144,0.672,-0.278,9.916,-11.200,64.400,224.800,-0.375,2.906,0.461
2019-06-09-14:51:06.678560,0.627,-0.290,10.071,11.800,64.500,168.500,-0.422,2.797,0.703
2019-06-09-14:51:06.697961,0.622,-0.278,10.052,36.200,58.000,125.200,-0.680,2.906,0.523
2019-06-09-14:51:06.717357,0.682,-0.313,10.074,37.400,110.700,225.800,-0.789,2.930,0.492
2019-06-09-14:51:06.736748,0.692,-0.323,10.091,-7.800,48.700,204.200,-0.688,2.992,0.422
2019-06-09-14:51:06.756284,0.644,-0.261,10.040,-2.500,65.000,228.000,-0.656,2.836,0.375
2019-06-09-14:51:06.775893,0.689,-0.301,10.050,7.500,-9.400,58.200,-0.859,2.797,0.328
2019-06-09-14:51:06.795339,0.608,-0.292,9.992,-5.300,45.000,194.600,-0.422,2.992,0.367
2019-06-09-14:51:06.814764,0.632,-0.266,10.062,-4.900,38.400,176.100,-0.492,2.734,0.258
2019-06-09-14:51:06.834281,0.636,-0.261,9.940,19.200,95.600,242.400,-0.445,2.906,0.578
2019-06-09-14:51:06.853682,0.639,-0.249,9.966,28.200,53.500,126.800,-0.445,2.961,0.289
2019-06-09-14:51:06.873113,0.632,-0.266,10.012,19.700,103.900,243.000,-0.781,3.078,0.602
2019-06-09-14:51:06.892518,0.629,-0.230,10.012,-0.800,-0.700,91.900,-1.172,3.047,0.328
2019-06-09-14:51:06.911913,0.677,-0.273,10.000,24.000,29.100,98.400,-0.633,2.984,0.555
2019-06-09-14:51:06.931304,0.646,-0.371,10.093,-2.200,47.400,204.100,-0.922,2.727,0.438
2019-06-09-14:51:06.950683,0.641,-0.306,10.141,-6.800,7.900,125.400,0.102,3.047,0.273
2019-06-09-14:51:06.970133,0.625,-0.304,10.100,27.600,107.100,230.000,-0.469,2.758,0.414
2019-06-09-14:51:06.989615,0.660,-0.304,10.024,10.400,-3.800,67.800,-0.578,3.055,0.398
2019-06-09-14:51:07.009018,0.617,-0.345,10.126,25.000,25.000,90.100,-0.641,2.969,0.414
2019-06-09-14:51:07.028425,0.665,-0.294,10.074,-10.300,0.900,117.800,-0.539,2.797,0.266
2019-06-09-14:51:07.047900,0.713,-0.361,10.074,13.100,113.000,269.500,-0.477,3.016,0.305
2019-06-09-14:51:07.067363,0.636,-0.318,10.095,35.900,54.800,118.700,-0.445,3.047,0.281
2019-06-09-14:51:07.086803,0.682,-0.309,10.100,13.100,-9.900,38.300,-0.641,2.727,0.281
2019-06-09-14:51:07.106206,0.665,-0.342,10.062,21.600,128.600,45.200,-0.227,2.727,0.398
2019-06-09-14:51:07.125618,0.656,-0.321,10.117,21.100,130.500,42.800,-0.469,2.773,0.492
2019-06-09-14:51:07.145094,0.625,-0.297,10.126,22.000,131.400,43.400,-0.859,2.789,0.469
2019-06-09-14:51:07.166741,0.617,-0.285,9.997,22.100,131.600,43.600,-0.484,2.750,0.266
2019-06-09-14:51:07.186261,0.634,-0.313,10.055,22.600,132.000,44.600,-0.680,2.797,0.555
2019-06-09-14:51:07.205662,0.617,-0.318,10.146,21.600,132.200,42.700,-0.469,2.812,0.492
2019-06-09-14:51:07.225087,0.632,-0.347,10.009,22.500,131.400,42.800,-0.758,2.992,0.398
2019-06-09-14:51:07.244493,0.668,-0.294,10.028,22.300,132.000,43.900,-0.859,2.820,0.523
2019-06-09-14:51:07.264083,0.653,-0.292,10.100,23.000,131.400,43.400,-0.547,3.008,0.352
2019-06-09-14:51:07.283600,0.632,-0.266,10.052,23.000,130.900,43.800,-0.703,2.688,0.305
2019-06-09-14:51:07.303035,0.656,-0.280,10.004,22.200,131.400,42.700,-0.492,3.008,0.336
2019-06-09-14:51:07.322486,0.617,-0.278,10.091,22.700,131.200,41.800,-1.227,3.094,0.438
2019-06-09-14:51:07.341885,0.632,-0.256,10.040,22.700,131.600,43.500,-0.695,3.016,0.391
2019-06-09-14:51:07.361406,0.663,-0.278,9.992,22.700,131.500,43.500,-0.469,3.016,0.391
2019-06-09-14:51:07.380893,0.634,-0.345,10.019,22.600,131.800,45.600,-0.594,3.070,0.523
2019-06-09-14:51:07.400804,0.644,-0.301,10.136,22.600,131.800,43.500,-0.570,3.016,0.508
2019-06-09-14:51:07.420320,0.632,-0.337,10.160,22.500,131.300,42.800,-0.781,2.641,0.234
2019-06-09-14:51:07.439720,0.670,-0.328,10.083,22.400,131.100,43.900,-0.148,2.898,0.219
2019-06-09-14:51:07.459104,0.658,-0.311,10.150,22.200,131.300,44.500,-0.516,2.922,0.469
2019-06-09-14:51:07.478555,0.670,-0.328,10.148,22.500,130.600,43.700,-0.609,2.875,0.461
2019-06-09-14:51:07.498254,0.653,-0.388,10.095,22.400,132.100,44.200,-0.562,2.758,0.414
2019-06-09-14:51:07.517863,0.658,-0.340,10.177,22.400,131.100,43.700,-0.883,2.758,0.352
2019-06-09-14:51:07.537319,0.651,-0.316,10.110,22.600,132.300,43.300,-0.578,3.055,0.336
2019-06-09-14:51:07.556737,0.651,-0.333,10.083,22.300,130.800,43.300,-0.406,3.117,0.422
2019-06-09-14:51:07.576233,0.646,-0.321,10.131,23.100,129.900,43.200,-0.445,3.055,0.312
2019-06-09-14:51:07.595914,0.644,-0.301,10.114,22.200,131.000,43.600,-0.734,2.812,0.391
2019-06-09-14:51:07.615412,0.672,-0.359,10.081,23.000,129.900,42.600,-0.469,2.688,0.461
2019-06-09-14:51:07.634862,0.639,-0.306,10.095,22.500,131.300,43.300,-0.297,2.734,0.508
2019-06-09-14:51:07.654363,0.689,-0.313,10.134,22.400,130.900,42.600,-0.469,2.820,0.445
2019-06-09-14:51:07.673807,0.660,-0.347,10.095,22.300,130.500,43.200,-0.438,2.750,0.352
2019-06-09-14:51:07.693205,0.644,-0.342,10.083,22.600,130.600,43.700,-0.297,3.133,0.391
2019-06-09-14:51:07.712618,0.629,-0.304,10.040,23.100,130.700,43.800,-0.438,2.922,0.438
2019-06-09-14:51:07.732013,0.694,-0.285,10.088,23.100,130.500,44.800,-0.617,2.859,0.523
2019-06-09-14:51:07.751559,0.639,-0.309,10.138,22.000,129.800,43.600,-0.484,2.922,0.641
2019-06-09-14:51:07.771220,0.665,-0.333,10.107,23.700,131.300,44.300,-0.688,2.773,0.422
2019-06-09-14:51:07.793632,0.641,-0.270,10.050,22.300,130.000,43.800,-0.492,2.969,0.555
2019-06-09-14:51:07.813343,0.668,-0.301,10.081,22.400,130.700,44.100,-0.422,2.930,0.570
2019-06-09-14:51:07.832807,0.648,-0.287,10.100,22.500,131.600,43.100,-0.570,2.758,0.523
2019-06-09-14:51:07.852181,0.651,-0.323,10.081,21.900,129.900,45.100,-0.328,2.969,0.422
2019-06-09-14:51:07.871950,0.648,-0.268,10.071,23.100,131.300,44.300,-0.445,2.812,0.508
2019-06-09-14:51:07.891477,0.639,-0.294,10.043,22.700,130.700,43.200,-0.617,2.898,0.469
2019-06-09-14:51:07.910908,0.627,-0.254,10.026,23.300,130.400,43.200,-0.961,3.016,0.258
2019-06-09-14:51:07.930308,0.648,-0.323,10.086,22.600,131.500,44.100,-0.812,2.750,0.484
2019-06-09-14:51:07.949690,0.658,-0.297,10.126,22.000,130.500,44.100,-0.758,2.906,0.445
2019-06-09-14:51:07.969072,0.668,-0.323,10.114,23.400,131.000,42.200,-0.680,2.836,0.492
2019-06-09-14:51:07.988517,0.665,-0.309,10.131,24.400,129.500,42.500,-0.453,3.133,0.328
2019-06-09-14:51:08.007938,0.670,-0.345,10.155,22.500,129.900,43.700,-0.227,2.875,0.484
2019-06-09-14:51:08.027359,0.672,-0.325,10.112,22.600,130.700,43.200,-0.641,3.055,0.414
2019-06-09-14:51:08.046835,0.644,-0.349,10.143,23.200,129.700,44.200,-0.445,2.930,0.305
2019-06-09-14:51:08.066248,0.665,-0.316,10.131,22.300,130.500,44.800,-0.641,2.844,0.258
2019-06-09-14:51:08.085749,0.682,-0.311,10.107,22.000,130.600,43.300,-0.539,3.055,0.398
2019-06-09-14:51:08.105175,0.672,-0.330,10.136,22.200,131.900,43.000,-0.812,3.070,0.352
2019-06-09-14:51:08.124576,0.675,-0.318,10.100,22.000,131.000,43.100,-0.633,2.797,0.367
2019-06-09-14:51:08.144075,0.660,-0.316,10.150,21.900,131.000,44.500,-0.352,2.844,0.531
2019-06-09-14:51:08.163476,0.668,-0.330,10.136,22.900,132.000,45.100,-0.594,2.727,0.492
2019-06-09-14:51:08.182863,0.675,-0.337,10.172,22.700,130.800,43.600,-0.445,2.906,0.219
2019-06-09-14:51:08.202378,0.658,-0.354,10.146,22.800,131.200,44.500,-0.492,3.078,0.289
2019-06-09-14:51:08.221798,0.670,-0.309,10.091,23.100,131.300,43.500,-0.609,2.969,0.648
2019-06-09-14:51:08.241275,0.651,-0.352,10.143,22.300,130.200,44.600,-0.734,2.758,0.703
2019-06-09-14:51:08.260769,0.658,-0.330,10.148,21.800,131.400,43.400,-0.930,2.531,0.492
2019-06-09-14:51:08.280249,0.668,-0.273,10.105,22.600,131.200,44.500,-0.836,2.961,0.398
2019-06-09-14:51:08.299728,0.653,-0.304,10.055,21.500,130.800,43.100,-0.594,3.141,0.711
2019-06-09-14:51:08.319148,0.636,-0.292,10.076,21.400,130.100,43.400,-0.562,2.688,0.391
2019-06-09-14:51:08.338551,0.651,-0.301,10.091,21.900,131.300,44.100,-0.422,2.797,0.445
2019-06-09-14:51:08.357946,0.658,-0.304,10.086,22.500,131.000,42.300,-0.547,3.031,0.398
2019-06-09-14:51:08.377325,0.629,-0.294,10.067,23.100,131.300,42.800,-0.883,2.773,0.156
2019-06-09-14:51:08.396758,0.670,-0.290,10.081,23.300,131.200,44.100,-0.273,2.898,0.102
2019-06-09-14:51:08.416165,0.660,-0.297,10.033,22.400,130.200,44.800,-0.617,2.758,0.523
2019-06-09-14:51:08.435543,0.660,-0.342,10.129,22.200,129.800,44.000,-0.695,3.031,0.461
2019-06-09-14:51:08.454913,0.670,-0.316,10.095,23.600,129.700,44.300,-0.664,2.875,0.086
2019-06-09-14:51:08.474383,0.663,-0.294,10.114,21.300,130.500,43.500,-0.680,2.859,0.484
2019-06-09-14:51:08.493782,0.646,-0.309,10.100,21.900,130.600,43.100,-0.711,2.711,0.570
2019-06-09-14:51:08.513244,0.658,-0.306,10.091,21.600,129.500,44.700,-0.289,2.750,0.484
2019-06-09-14:51:08.532661,0.680,-0.318,10.138,22.900,130.100,43.300,-0.562,2.812,0.336
2019-06-09-14:51:08.552060,0.660,-0.325,10.105,23.100,130.700,43.300,-0.242,2.789,0.398
2019-06-09-14:51:08.571554,0.660,-0.330,10.124,23.400,129.500,44.700,-0.570,3.055,0.289
2019-06-09-14:51:08.593112,0.680,-0.325,10.122,22.700,131.100,44.000,-0.688,2.703,0.602
2019-06-09-14:51:08.613032,0.648,-0.342,10.107,22.700,130.800,43.700,-0.594,2.758,0.289
2019-06-09-14:51:08.632537,0.660,-0.328,10.138,22.400,130.400,43.900,-0.609,2.984,0.219
2019-06-09-14:51:08.651941,0.663,-0.325,10.138,22.700,130.800,44.100,-0.320,2.906,0.469
2019-06-09-14:51:08.673355,0.641,-0.335,10.158,22.300,130.800,44.400,-0.992,2.836,0.750
2019-06-09-14:51:08.692851,0.648,-0.318,10.114,21.800,129.800,44.100,-0.711,3.031,0.547
2019-06-09-14:51:08.713405,0.658,-0.330,10.148,22.200,129.100,43.000,-0.781,2.789,0.312
2019-06-09-14:51:08.738331,0.677,-0.313,10.136,23.400,131.900,45.500,-0.133,2.961,0.414
2019-06-09-14:51:08.758434,0.668,-0.340,10.129,23.500,132.000,44.300,-0.469,2.734,0.469
2019-06-09-14:51:08.778033,0.646,-0.333,10.112,22.900,130.700,44.200,-0.672,2.992,0.375
2019-06-09-14:51:08.797586,0.668,-0.335,10.143,23.100,132.600,44.700,-0.680,2.922,0.367
2019-06-09-14:51:08.817153,0.684,-0.328,10.105,22.200,131.000,43.400,-0.328,3.070,0.469
2019-06-09-14:51:08.836634,0.610,-0.330,10.122,22.400,131.900,43.600,-0.289,2.898,0.555
2019-06-09-14:51:08.856149,0.675,-0.311,10.119,22.600,131.600,43.900,-1.000,2.836,0.258
2019-06-09-14:51:08.875613,0.680,-0.316,10.122,22.200,131.900,44.600,-0.898,2.797,0.367
2019-06-09-14:51:08.895062,0.641,-0.290,10.124,22.600,130.300,44.100,-0.469,2.984,0.484
2019-06-09-14:51:08.914575,0.675,-0.306,10.093,22.800,131.600,43.800,-0.242,2.906,0.469
2019-06-09-14:51:08.934103,0.641,-0.318,10.098,22.400,130.400,44.200,-0.688,2.734,0.445
2019-06-09-14:51:08.953527,0.641,-0.316,10.088,22.700,129.600,44.000,-0.484,2.859,0.422
2019-06-09-14:51:08.972998,0.641,-0.316,10.083,23.100,130.500,45.100,-0.594,2.836,0.617
2019-06-09-14:51:08.994466,0.672,-0.313,10.122,22.200,130.000,43.900,-0.617,3.188,0.594
2019-06-09-14:51:09.014365,0.658,-0.301,10.043,22.700,130.000,44.500,-0.461,2.812,0.461
2019-06-09-14:51:09.033856,0.648,-0.278,10.057,22.800,129.900,42.900,-0.555,2.992,0.367
2019-06-09-14:51:09.053253,0.644,-0.294,10.095,22.200,131.100,44.100,-0.758,3.070,0.352
2019-06-09-14:51:09.072680,0.651,-0.309,10.069,22.400,130.300,43.900,-0.203,2.945,0.461
2019-06-09-14:51:09.092103,0.639,-0.287,10.059,22.200,130.300,43.000,-0.812,3.094,0.281
2019-06-09-14:51:09.111684,0.639,-0.273,10.081,22.600,130.100,42.000,-0.680,2.844,0.594
2019-06-09-14:51:09.131179,0.651,-0.299,10.059,22.500,131.100,43.800,-0.727,2.922,0.398
2019-06-09-14:51:09.150594,0.651,-0.292,10.076,22.700,130.100,45.500,-1.461,3.055,0.547
2019-06-09-14:51:09.169982,0.646,-0.273,10.055,22.700,129.000,42.900,-0.375,2.898,0.531
2019-06-09-14:51:09.189486,0.636,-0.292,10.040,23.000,130.100,43.600,-0.516,2.773,0.367
2019-06-09-14:51:09.208939,0.644,-0.275,10.076,23.100,130.400,44.500,-0.734,2.703,0.266
2019-06-09-14:51:09.228354,0.670,-0.328,10.002,22.800,130.100,43.400,-0.617,2.820,0.594
2019-06-09-14:51:09.247827,0.660,-0.323,10.148,23.000,129.900,43.500,-0.492,2.906,0.625
2019-06-09-14:51:09.267309,0.658,-0.333,10.160,5.000,44.700,77.800,-0.602,3.102,0.461
2019-06-09-14:51:09.286800,0.677,-0.290,10.138,27.800,96.900,208.700,-0.141,3.250,0.469
2019-06-09-14:51:09.306271,0.648,-0.347,10.117,-0.700,2.600,116.000,-0.492,2.789,0.352
2019-06-09-14:51:09.325893,0.675,-0.325,10.158,19.800,54.200,173.600,-0.562,2.883,0.438
2019-06-09-14:51:09.345333,0.672,-0.321,10.150,16.400,53.700,176.800,-0.688,2.945,0.305
2019-06-09-14:51:09.364735,0.670,-0.340,10.148,26.900,66.400,196.800,-0.859,2.797,0.547
2019-06-09-14:51:09.384252,0.663,-0.323,10.155,26.500,78.400,217.100,-0.609,2.844,0.336
2019-06-09-14:51:09.403679,0.672,-0.321,10.105,5.300,102.100,270.500,-0.391,2.836,0.375
2019-06-09-14:51:09.423132,0.648,-0.311,10.110,5.500,61.500,118.500,-0.445,2.984,0.531
2019-06-09-14:51:09.442541,0.641,-0.321,10.105,14.600,78.200,63.700,-0.562,2.492,0.375
2019-06-09-14:51:09.461926,0.658,-0.313,10.110,22.700,101.700,53.400,-0.766,3.031,0.555
2019-06-09-14:51:09.481309,0.668,-0.313,10.105,26.900,118.400,73.100,-0.805,2.789,0.375
2019-06-09-14:51:09.500719,0.672,-0.325,10.091,31.000,118.800,45.900,-0.828,2.984,0.391
2019-06-09-14:51:09.520239,0.636,-0.316,10.091,0.800,47.400,98.200,-0.641,2.797,0.375
2019-06-09-14:51:09.539763,0.653,-0.340,10.074,1.700,58.600,152.600,-0.625,3.188,0.625
2019-06-09-14:51:09.559241,0.665,-0.299,10.074,18.800,107.000,120.000,-0.289,2.844,0.570
2019-06-09-14:51:09.578692,0.639,-0.311,10.095,16.900,97.600,124.600,-0.664,3.016,0.508
2019-06-09-14:51:09.598150,0.670,-0.297,10.093,8.400,82.500,164.300,-0.266,2.859,0.367
2019-06-09-14:51:09.617697,0.641,-0.304,10.088,13.700,58.300,36.200,-0.711,2.930,0.398
2019-06-09-14:51:09.637182,0.639,-0.333,10.074,19.400,119.200,169.800,-0.539,2.602,0.422
2019-06-09-14:51:09.656584,0.682,-0.306,10.134,9.200,50.000,41.600,-0.570,2.414,0.328
2019-06-09-14:51:09.676079,0.648,-0.321,10.095,26.600,119.500,117.900,-0.562,2.984,0.422
2019-06-09-14:51:09.695491,0.656,-0.316,10.122,21.500,88.800,64.300,-0.547,2.961,0.547
2019-06-09-14:51:09.714894,0.675,-0.342,10.155,8.600,68.900,123.800,-0.602,3.266,0.656
2019-06-09-14:51:09.734336,0.670,-0.328,10.098,12.500,73.300,88.300,-0.680,2.797,0.531
2019-06-09-14:51:09.753834,0.646,-0.328,10.083,19.000,71.400,74.000,-0.266,2.688,0.469
2019-06-09-14:51:09.773326,0.658,-0.330,10.119,16.300,85.300,115.500,-0.195,2.930,0.133
2019-06-09-14:51:09.792763,0.670,-0.333,10.105,24.100,81.300,72.700,-1.102,2.625,0.422
2019-06-09-14:51:09.815494,0.665,-0.342,10.177,30.300,107.900,77.000,-0.258,3.078,0.508
2019-06-09-14:51:09.835053,0.675,-0.335,10.117,2.200,26.800,60.000,-0.273,2.859,0.414
2019-06-09-14:51:09.854464,0.656,-0.333,10.126,13.100,81.400,126.700,-0.773,2.648,0.375
2019-06-09-14:51:09.874082,0.682,-0.337,10.148,25.400,66.000,24.600,-0.422,2.945,0.367
2019-06-09-14:51:09.893519,0.658,-0.306,10.117,29.700,111.100,110.300,-0.328,3.078,0.508
2019-06-09-14:51:09.912918,0.660,-0.335,10.177,15.400,92.500,163.700,-0.812,2.961,0.703
2019-06-09-14:51:09.932530,0.680,-0.366,10.167,8.500,52.400,106.600,-0.781,3.055,0.375
2019-06-09-14:51:09.952027,0.684,-0.304,10.098,12.000,63.400,119.800,-0.516,3.008,0.188
2019-06-09-14:51:09.971525,0.648,-0.345,10.119,15.800,72.500,128.300,-0.875,2.883,0.352
2019-06-09-14:51:09.990926,0.656,-0.325,10.091,13.600,76.300,128.300,-0.250,3.297,0.383
2019-06-09-14:51:10.010320,0.665,-0.325,10.112,14.800,43.800,65.000,-0.727,2.930,0.328
2019-06-09-14:51:10.029982,0.651,-0.282,10.119,8.000,77.700,175.200,-0.531,2.688,0.508
2019-06-09-14:51:10.049637,0.703,-0.328,10.074,16.300,92.100,171.000,-0.297,2.773,0.750
2019-06-09-14:51:10.069262,0.646,-0.325,10.119,14.100,92.900,181.500,-0.672,3.047,0.547
2019-06-09-14:51:10.088707,0.644,-0.328,10.095,20.600,100.000,166.500,-0.617,2.992,0.531
2019-06-09-14:51:10.108121,0.653,-0.299,10.124,8.500,63.800,132.700,-0.531,2.883,0.398
2019-06-09-14:51:10.127639,0.663,-0.278,10.047,3.300,27.500,81.800,-0.883,2.773,0.258
2019-06-09-14:51:10.147112,0.660,-0.290,10.035,36.300,113.900,134.700,-0.758,2.531,0.375
2019-06-09-14:51:10.168560,0.658,-0.294,10.100,24.300,106.300,165.900,-0.680,2.773,0.375
2019-06-09-14:51:10.188058,0.627,-0.342,10.102,-7.400,33.100,152.400,-0.625,3.016,0.469
2019-06-09-14:51:10.207976,0.651,-0.301,10.105,24.800,67.400,88.600,-0.133,3.008,0.219
2019-06-09-14:51:10.227594,0.656,-0.304,10.024,33.600,125.900,168.000,-0.570,2.758,0.375
2019-06-09-14:51:10.247026,0.675,-0.301,10.088,8.400,69.500,154.100,-0.492,2.758,0.648
2019-06-09-14:51:10.266564,0.677,-0.273,10.112,3.100,88.600,239.400,-0.562,2.812,0.367
2019-06-09-14:51:10.286156,0.634,-0.301,10.021,15.500,97.500,198.400,-0.422,2.711,0.484
2019-06-09-14:51:10.305610,0.651,-0.333,10.076,5.700,58.200,140.500,-0.516,2.477,0.438
2019-06-09-14:51:10.325043,0.665,-0.299,10.100,26.700,91.800,127.800,-0.922,2.844,0.336
2019-06-09-14:51:10.344495,0.677,-0.330,10.114,25.500,38.100,20.900,-0.492,2.875,0.570
2019-06-09-14:51:10.364012,0.663,-0.349,10.148,29.100,49.200,32.400,-0.406,3.078,0.188
2019-06-09-14:51:10.383431,0.653,-0.321,10.117,20.600,126.500,239.200,-0.836,3.117,0.398
2019-06-09-14:51:10.402834,0.670,-0.299,10.136,21.700,107.100,191.800,-0.570,2.992,0.367
2019-06-09-14:51:10.422306,0.672,-0.325,10.124,5.100,22.900,82.800,-0.570,2.812,0.414
2019-06-09-14:51:10.441737,0.651,-0.325,10.107,-1.100,58.400,171.000,-0.828,2.758,0.570
2019-06-09-14:51:10.461278,0.656,-0.311,10.134,27.900,102.700,151.800,-0.867,2.992,0.492
2019-06-09-14:51:10.480686,0.675,-0.368,10.110,15.400,81.300,166.000,-0.320,2.797,0.594
2019-06-09-14:51:10.500063,0.651,-0.342,10.129,21.600,75.100,134.500,-0.711,2.844,0.266
2019-06-09-14:51:10.519565,0.684,-0.352,10.141,8.400,74.100,167.100,-0.680,2.586,0.547
2019-06-09-14:51:10.538982,0.648,-0.342,10.114,7.400,48.200,115.900,-0.531,2.984,0.195
2019-06-09-14:51:10.558441,0.656,-0.323,10.114,18.100,87.500,161.200,-0.609,2.969,0.445
2019-06-09-14:51:10.577928,0.639,-0.330,10.105,9.000,57.100,147.500,-0.320,2.539,0.703
2019-06-09-14:51:10.597364,0.632,-0.304,10.100,16.600,84.000,169.400,-0.703,2.789,0.492
2019-06-09-14:51:10.616796,0.622,-0.263,10.009,14.600,76.400,163.100,-0.531,2.750,0.375
2019-06-09-14:51:10.636186,0.636,-0.273,10.057,6.400,50.600,144.800,-0.297,3.031,0.195
2019-06-09-14:51:10.655631,0.656,-0.268,10.004,23.100,64.700,111.100,-0.867,3.211,0.359
2019-06-09-14:51:10.675220,0.625,-0.273,10.052,9.600,61.900,149.400,-0.531,2.625,0.594
2019-06-09-14:51:10.694684,0.613,-0.273,10.016,13.000,54.700,141.400,-0.734,2.672,0.336
2019-06-09-14:51:10.714194,0.672,-0.292,10.067,15.600,78.200,165.800,-0.750,2.836,0.336
2019-06-09-14:51:10.733648,0.648,-0.282,10.081,12.500,80.000,171.600,-0.977,2.844,0.484
2019-06-09-14:51:10.753161,0.625,-0.301,10.079,12.000,51.900,134.200,-0.906,2.906,0.367
2019-06-09-14:51:10.773033,0.627,-0.268,10.067,14.200,69.800,141.500,-0.344,2.602,0.523
2019-06-09-14:51:10.792638,0.625,-0.321,10.079,11.800,83.900,177.000,-0.562,2.922,0.328
2019-06-09-14:51:10.812125,0.639,-0.328,10.045,23.300,90.400,167.400,-0.664,2.922,0.508
2019-06-09-14:51:10.831651,0.663,-0.301,10.119,0.600,35.400,127.800,-0.656,2.812,0.469
2019-06-09-14:51:10.851152,0.656,-0.342,10.057,-2.200,51.600,162.400,-0.492,2.758,0.641
2019-06-09-14:51:10.870692,0.639,-0.357,10.088,-1.000,66.800,184.600,-0.344,2.898,0.617
2019-06-09-14:51:10.890125,0.641,-0.337,10.155,-0.500,66.100,184.500,-1.000,2.969,0.289
2019-06-09-14:51:10.909685,0.684,-0.290,10.100,26.100,96.100,181.200,-0.734,2.797,0.219
2019-06-09-14:51:10.929111,0.656,-0.337,10.093,9.100,25.000,81.400,-0.586,2.789,0.258
2019-06-09-14:51:10.948516,0.658,-0.323,10.155,17.800,38.400,89.000,-0.562,2.844,0.438
2019-06-09-14:51:10.968094,0.680,-0.333,10.074,-1.900,62.700,181.100,-0.953,2.961,0.422
2019-06-09-14:51:10.987700,0.670,-0.335,10.117,-1.900,52.800,166.100,-0.633,2.797,0.234
2019-06-09-14:51:11.007979,0.629,-0.321,10.107,9.700,41.400,109.800,-0.664,3.055,0.547
2019-06-09-14:51:11.027602,0.663,-0.325,10.117,18.900,59.500,127.000,-0.516,2.875,0.305
2019-06-09-14:51:11.047028,0.656,-0.357,10.146,20.300,79.300,158.300,-0.914,3.008,0.758
2019-06-09-14:51:11.066550,0.634,-0.251,10.117,20.600,74.800,148.300,-0.531,2.961,0.414
2019-06-09-14:51:11.086104,0.651,-0.270,10.055,17.600,85.700,171.900,-0.688,2.797,0.398
2019-06-09-14:51:11.105546,0.675,-0.282,10.009,11.700,75.900,184.700,-0.523,3.078,0.484
2019-06-09-14:51:11.124994,0.622,-0.282,10.033,15.300,80.100,170.500,-0.391,2.930,0.555
2019-06-09-14:51:11.144522,0.658,-0.254,10.009,18.100,72.000,143.400,-0.102,2.984,0.281
2019-06-09-14:51:11.164087,0.605,-0.234,9.968,11.200,45.900,118.700,-0.750,2.820,0.289
2019-06-09-14:51:11.183551,0.625,-0.282,10.050,12.800,58.000,130.400,-0.180,2.820,0.219
2019-06-09-14:51:11.202944,0.598,-0.258,10.040,7.300,82.300,204.700,-0.570,2.773,0.352
2019-06-09-14:51:11.222430,0.658,-0.280,10.057,17.200,55.900,122.400,-0.734,2.844,0.375
2019-06-09-14:51:11.241849,0.653,-0.292,10.014,12.900,45.000,113.600,-0.734,2.836,0.398
2019-06-09-14:51:11.261510,0.632,-0.268,10.035,5.500,55.200,158.400,-0.633,2.617,0.258
2019-06-09-14:51:11.281062,0.668,-0.290,10.086,8.400,58.300,163.600,-0.727,2.758,0.445
2019-06-09-14:51:11.300506,0.672,-0.299,10.016,13.500,79.000,177.200,-0.445,3.070,0.258
2019-06-09-14:51:11.319931,0.627,-0.268,10.102,17.100,51.800,123.800,-1.148,3.180,0.469
2019-06-09-14:51:11.339431,0.648,-0.316,10.040,16.200,76.700,176.100,-0.516,2.859,0.398
2019-06-09-14:51:11.358856,0.660,-0.352,10.067,-1.800,46.800,161.800,-0.484,2.773,0.367
2019-06-09-14:51:11.378357,0.651,-0.304,10.146,28.500,75.200,139.300,-0.547,2.945,0.328
2019-06-09-14:51:11.399868,0.646,-0.287,10.012,25.200,49.900,98.700,-0.242,2.906,0.445
2019-06-09-14:51:11.419775,0.634,-0.299,10.055,-2.300,60.700,193.000,-0.453,3.008,0.461
2019-06-09-14:51:11.439263,0.634,-0.313,10.079,26.100,59.000,115.300,-0.211,3.250,0.312
2019-06-09-14:51:11.458673,0.660,-0.335,10.067,7.200,14.800,78.900,-0.656,2.812,0.602
2019-06-09-14:51:11.478125,0.692,-0.342,10.074,11.900,97.600,231.000,-0.680,2.844,0.711
2019-06-09-14:51:11.497626,0.632,-0.323,10.069,24.700,103.100,221.800,0.039,2.812,0.297
2019-06-09-14:51:11.517070,0.629,-0.282,10.153,26.900,66.700,128.400,-0.727,2.984,0.461
2019-06-09-14:51:11.536472,0.720,-0.359,10.155,5.300,29.100,100.600,-0.617,2.789,0.352
2019-06-09-14:51:11.555949,0.615,-0.340,10.112,4.100,56.500,181.900,-0.898,2.641,0.570
2019-06-09-14:51:11.575457,0.660,-0.251,10.035,21.900,91.200,198.900,-0.758,2.961,0.234
2019-06-09-14:51:11.594874,0.608,-0.225,10.021,4.200,26.700,106.600,-0.969,2.734,0.367
2019-06-09-14:51:11.614331,0.651,-0.280,10.019,10.800,25.700,99.600,-0.516,2.945,0.328
2019-06-09-14:51:11.633731,0.632,-0.287,10.019,3.600,58.500,187.500,-0.641,2.930,0.352
2019-06-09-14:51:11.653121,0.622,-0.261,10.028,14.800,24.900,86.900,-0.820,3.055,0.281
2019-06-09-14:51:11.674695,0.627,-0.280,10.062,1.900,52.600,170.300,-0.391,2.773,0.109
2019-06-09-14:51:11.694278,0.634,-0.292,10.009,-2.700,31.400,139.900,-0.570,2.844,0.414
2019-06-09-14:51:11.713771,0.646,-0.285,10.043,13.900,56.100,149.100,-0.773,2.797,0.352
2019-06-09-14:51:11.733162,0.651,-0.275,10.024,12.000,56.600,152.900,-0.555,3.047,0.492
2019-06-09-14:51:11.752644,0.665,-0.268,10.009,12.600,54.900,149.000,-0.422,2.672,0.305
2019-06-09-14:51:11.772164,0.656,-0.261,10.076,13.800,51.300,148.400,-0.641,2.617,0.594
2019-06-09-14:51:11.791722,0.634,-0.297,10.028,16.900,69.100,168.300,-0.297,2.820,-0.023
2019-06-09-14:51:11.811227,0.610,-0.258,10.007,8.400,51.600,157.500,-0.508,2.844,0.438
2019-06-09-14:51:11.830642,0.675,-0.290,10.107,10.300,59.400,158.000,-0.211,3.008,0.523
2019-06-09-14:51:11.850028,0.632,-0.299,10.074,10.800,59.900,157.800,-0.719,3.070,0.312
2019-06-09-14:51:11.869516,0.632,-0.304,10.050,8.700,64.100,156.700,-1.094,2.539,0.711
2019-06-09-14:51:11.889052,0.670,-0.328,10.045,25.700,73.200,144.700,-0.352,2.984,0.664
2019-06-09-14:51:11.908508,0.684,-0.294,10.146,20.400,51.000,109.400,-0.305,2.789,0.172
2019-06-09-14:51:11.927955,0.653,-0.313,10.052,24.200,68.300,136.600,-0.258,3.047,0.523
2019-06-09-14:51:11.947363,0.670,-0.306,10.093,12.800,102.100,234.000,-0.594,3.031,0.570
2019-06-09-14:51:11.966777,0.639,-0.294,10.067,17.500,105.300,231.100,-1.039,2.844,0.008
2019-06-09-14:51:11.986248,0.634,-0.323,10.009,21.400,99.700,212.000,-0.562,2.703,0.086
2019-06-09-14:51:12.005661,0.641,-0.304,10.064,25.000,98.800,202.300,-0.852,2.844,0.398
2019-06-09-14:51:12.025190,0.680,-0.311,10.045,25.700,81.600,164.100,-0.492,2.836,0.711
2019-06-09-14:51:12.044644,0.613,-0.297,10.076,7.300,93.800,226.500,-0.586,2.898,0.688
2019-06-09-14:51:12.064140,0.680,-0.278,10.059,30.200,43.300,79.400,-0.547,2.961,0.336
2019-06-09-14:51:12.083685,0.665,-0.321,10.052,35.500,122.400,217.200,-0.492,2.875,0.438
2019-06-09-14:51:12.103127,0.615,-0.287,10.024,24.500,139.700,281.600,-0.414,2.984,0.328
2019-06-09-14:51:12.122547,0.632,-0.294,10.057,-2.600,98.300,266.800,-0.273,2.797,0.625
2019-06-09-14:51:12.141943,0.627,-0.294,10.014,8.300,102.400,252.400,-0.664,2.898,0.469
2019-06-09-14:51:12.161340,0.668,-0.273,10.019,40.800,119.800,198.600,-0.289,2.984,0.461
2019-06-09-14:51:12.180873,0.622,-0.266,10.083,20.700,24.900,56.700,-0.500,3.070,0.664
2019-06-09-14:51:12.203551,0.627,-0.311,9.992,14.400,45.200,129.900,-0.586,2.836,0.484
2019-06-09-14:51:12.223244,0.660,-0.254,10.016,36.200,147.200,259.000,-0.602,3.031,0.266
2019-06-09-14:51:12.242715,0.644,-0.287,10.076,20.700,-5.900,20.000,-1.000,2.898,0.469
2019-06-09-14:51:12.262367,0.672,-0.287,10.028,-22.200,25.700,171.400,-0.828,2.883,0.438
2019-06-09-14:51:12.281958,0.696,-0.249,9.976,16.500,6.400,51.000,-0.430,3.438,0.406
2019-06-09-14:51:12.301516,0.598,-0.268,10.055,13.200,-18.300,9.500,-0.547,2.773,0.422
2019-06-09-14:51:12.320944,0.601,-0.251,10.031,27.100,155.700,296.700,-0.461,2.773,0.352
2019-06-09-14:51:12.340348,0.639,-0.254,10.026,-24.400,3.100,129.300,-0.953,2.789,0.305
2019-06-09-14:51:12.359759,0.613,-0.287,10.071,22.600,147.400,316.400,-0.648,3.102,0.438
2019-06-09-14:51:12.379176,0.656,-0.301,10.024,43.900,139.600,248.100,-0.812,2.586,0.219
2019-06-09-14:51:12.398647,0.699,-0.278,10.035,9.000,-41.600,-5.700,-0.547,2.883,0.570
2019-06-09-14:51:12.418055,0.636,-0.278,10.031,26.500,152.100,313.600,-0.320,2.820,0.508
2019-06-09-14:51:12.437452,0.639,-0.290,10.076,43.200,139.900,253.700,-0.414,2.875,0.828
2019-06-09-14:51:12.456850,0.660,-0.266,10.098,36.500,18.300,50.600,-0.695,3.016,0.438
2019-06-09-14:51:12.476230,0.601,-0.304,10.093,11.800,136.100,320.600,-0.891,3.055,0.375
2019-06-09-14:51:12.496092,0.646,-0.294,10.052,-4.400,-48.000,3.900,-0.477,3.117,0.555
2019-06-09-14:51:12.515626,0.663,-0.280,10.055,-19.500,-34.700,55.500,-0.180,2.875,0.234
2019-06-09-14:51:12.535081,0.646,-0.278,10.098,46.900,84.800,138.400,-0.516,3.008,0.422
2019-06-09-14:51:12.554507,0.648,-0.311,10.079,40.900,144.300,269.000,-0.469,2.875,0.336
2019-06-09-14:51:12.573913,0.646,-0.304,10.124,47.000,116.300,200.300,-0.359,3.266,0.359
2019-06-09-14:51:12.593407,0.644,-0.297,10.110,36.800,146.200,284.900,-0.531,2.945,0.461
2019-06-09-14:51:12.613370,0.644,-0.297,10.050,-17.900,23.700,183.900,-0.617,2.844,0.258
2019-06-09-14:51:12.632916,0.668,-0.268,10.086,39.000,35.400,69.200,-0.953,3.141,0.336
2019-06-09-14:51:12.652415,0.617,-0.273,10.012,45.600,121.100,211.000,-0.617,2.992,0.547
2019-06-09-14:51:12.671838,0.636,-0.270,10.052,-17.300,30.100,191.600,-0.656,2.875,0.492
2019-06-09-14:51:12.691316,0.634,-0.311,10.095,1.200,-39.000,4.900,-0.742,3.008,0.391
2019-06-09-14:51:12.710791,0.660,-0.261,10.016,-12.100,-35.900,27.100,-0.938,3.047,0.242
2019-06-09-14:51:12.730188,0.627,-0.282,9.959,33.900,123.400,234.300,-0.680,2.836,0.484
2019-06-09-14:51:12.749657,0.636,-0.266,10.047,50.000,128.400,212.500,-0.781,2.641,0.281
2019-06-09-14:51:12.769205,0.608,-0.297,10.016,45.800,105.900,180.400,-1.000,3.031,0.594
2019-06-09-14:51:12.788713,0.682,-0.292,9.997,-2.400,-32.600,3.300,-0.484,2.922,0.469
2019-06-09-14:51:12.808184,0.632,-0.220,10.024,-1.100,117.100,300.700,-0.711,3.094,0.242
2019-06-09-14:51:12.827697,0.663,-0.285,10.126,7.100,-26.400,-1.200,-0.391,2.758,0.602
2019-06-09-14:51:12.847116,0.701,-0.282,10.024,40.500,127.300,212.000,-0.688,2.969,0.422
2019-06-09-14:51:12.866535,0.584,-0.280,10.045,-12.300,87.500,274.600,-0.555,3.156,0.672
2019-06-09-14:51:12.886044,0.658,-0.290,10.105,37.500,53.800,87.300,-0.641,2.961,0.461
2019-06-09-14:51:12.905521,0.632,-0.266,10.033,41.200,89.800,141.400,-0.562,2.797,0.422
2019-06-09-14:51:12.924940,0.613,-0.237,10.035,18.100,-11.500,10.500,-0.516,2.898,0.555
2019-06-09-14:51:12.944343,0.629,-0.263,10.012,3.700,130.300,311.200,-0.492,2.984,0.461
2019-06-09-14:51:12.963748,0.639,-0.249,10.002,9.300,-25.400,2.100,-0.688,3.141,0.211
2019-06-09-14:51:12.983134,0.660,-0.270,10.057,-12.300,82.000,268.000,-0.656,2.906,0.336
2019-06-09-14:51:13.002520,0.670,-0.280,10.052,-3.200,-40.600,-2.300,-0.805,2.984,0.211
2019-06-09-14:51:13.021952,0.644,-0.352,10.148,12.300,143.100,313.800,-0.695,3.180,0.758
2019-06-09-14:51:13.041433,0.692,-0.335,10.067,0.100,124.100,310.000,-0.812,3.164,0.281
2019-06-09-14:51:13.060901,0.682,-0.321,10.098,18.600,-9.000,14.600,-0.836,2.883,0.266
2019-06-09-14:51:13.080373,0.680,-0.304,10.067,37.900,66.400,103.100,-0.391,2.859,0.508
2019-06-09-14:51:13.099798,0.653,-0.299,10.045,-8.600,71.700,231.500,-0.484,2.773,0.547
2019-06-09-14:51:13.119366,0.687,-0.325,10.119,-14.900,37.900,156.100,-0.977,3.094,0.414
2019-06-09-14:51:13.138791,0.644,-0.330,10.050,-15.800,52.400,219.600,-0.680,2.875,0.617
2019-06-09-14:51:13.160178,0.636,-0.313,10.043,38.600,142.700,244.600,-0.547,2.578,0.664
2019-06-09-14:51:13.179683,0.653,-0.301,10.076,7.700,91.700,239.100,-0.430,3.008,0.625
2019-06-09-14:51:13.199082,0.632,-0.309,10.033,5.300,130.100,314.500,-0.633,2.664,0.266
2019-06-09-14:51:13.218525,0.656,-0.278,10.004,-7.600,-39.000,21.100,-0.602,3.008,0.258
2019-06-09-14:51:13.237913,0.622,-0.256,10.026,9.400,-37.200,4.100,-0.898,2.984,0.445
2019-06-09-14:51:13.257346,0.646,-0.280,10.038,-7.000,-42.100,17.600,-0.148,2.836,0.289
2019-06-09-14:51:13.276808,0.658,-0.256,10.026,37.200,55.800,114.200,-0.641,2.773,0.398
2019-06-09-14:51:13.296235,0.670,-0.313,10.064,-16.400,-1.900,112.000,-0.438,2.875,0.445
2019-06-09-14:51:13.315693,0.620,-0.301,10.102,32.800,131.800,263.600,-0.375,3.078,0.414
2019-06-09-14:51:13.335114,0.665,-0.313,10.067,12.300,-20.800,23.500,-0.570,3.078,0.391
2019-06-09-14:51:13.354512,0.634,-0.254,9.933,-5.100,88.000,270.500,-0.953,2.984,0.391
2019-06-09-14:51:13.373993,0.646,-0.294,10.016,42.500,87.300,157.800,-0.617,2.789,0.461
2019-06-09-14:51:13.393403,0.699,-0.294,10.088,32.400,137.200,277.400,-0.531,2.992,0.211
2019-06-09-14:51:13.413444,0.629,-0.318,9.997,-11.500,64.600,243.600,-0.492,2.688,0.328
2019-06-09-14:51:13.432998,0.632,-0.292,10.016,32.300,138.500,276.600,-0.688,2.836,0.281
2019-06-09-14:51:13.452468,0.641,-0.292,10.031,5.500,-40.800,0.000,-0.664,2.930,0.219
2019-06-09-14:51:13.471985,0.675,-0.357,9.995,43.700,85.400,152.300,-0.859,3.031,0.391
2019-06-09-14:51:13.491481,0.646,-0.349,10.196,-9.100,71.200,254.400,-0.703,2.906,0.266
2019-06-09-14:51:13.510906,0.665,-0.292,10.095,33.200,141.800,277.700,-0.492,3.047,0.312
2019-06-09-14:51:13.530512,0.646,-0.292,10.093,43.200,118.300,215.100,-0.445,2.844,0.336
2019-06-09-14:51:13.549941,0.675,-0.287,10.052,31.800,139.000,279.500,-0.664,2.773,0.367
2019-06-09-14:51:13.569432,0.627,-0.297,10.064,27.000,-2.400,32.300,-0.805,2.859,0.570
2019-06-09-14:51:13.588828,0.680,-0.297,10.126,26.700,132.500,278.300,-0.922,2.797,0.594
2019-06-09-14:51:13.608281,0.668,-0.361,10.095,28.000,148.400,310.000,-0.852,2.859,0.258
2019-06-09-14:51:13.627851,0.665,-0.301,10.131,41.300,97.200,161.400,-0.352,2.617,0.602
2019-06-09-14:51:13.647282,0.636,-0.352,10.131,-18.400,-27.500,44.000,-0.953,2.961,0.352
2019-06-09-14:51:13.666686,0.620,-0.328,10.043,9.800,140.000,314.200,-0.664,2.773,0.531
2019-06-09-14:51:13.686080,0.663,-0.325,10.141,41.700,124.400,213.400,-0.641,2.797,0.750
2019-06-09-14:51:13.705465,0.668,-0.340,10.119,-27.400,-2.400,111.200,-0.727,2.898,0.414
2019-06-09-14:51:13.724899,0.665,-0.304,10.019,4.900,-32.600,8.300,-0.750,2.945,0.672
2019-06-09-14:51:13.744378,0.632,-0.309,10.100,-17.900,57.500,229.400,-1.078,2.961,0.703
2019-06-09-14:51:13.763878,0.641,-0.285,10.045,-18.000,-29.900,41.200,-0.734,2.797,0.242
2019-06-09-14:51:13.783388,0.651,-0.316,10.091,41.500,105.200,171.500,-0.484,2.930,0.438
2019-06-09-14:51:13.805464,0.684,-0.309,9.997,22.200,-0.400,31.000,-0.594,3.008,0.352
2019-06-09-14:51:13.825366,0.629,-0.290,10.071,-21.400,44.400,202.100,-0.484,2.984,0.375
2019-06-09-14:51:13.844875,0.648,-0.287,10.040,2.400,-36.600,8.600,-0.688,3.070,0.398
2019-06-09-14:51:13.864371,0.634,-0.280,10.026,-3.200,110.900,298.200,-0.469,2.961,0.422
2019-06-09-14:51:13.883838,0.684,-0.263,10.038,38.700,67.600,114.000,-0.688,3.016,0.102
2019-06-09-14:51:13.903234,0.622,-0.285,10.050,38.200,139.600,249.500,-0.570,3.117,0.664
2019-06-09-14:51:13.922628,0.646,-0.323,9.983,-24.000,25.800,160.900,-0.594,2.836,0.445
2019-06-09-14:51:13.942086,0.658,-0.297,10.028,34.500,141.700,264.600,-0.375,2.875,0.484
2019-06-09-14:51:13.961585,0.658,-0.371,10.035,10.500,1.700,53.500,-0.344,2.812,0.391
2019-06-09-14:51:13.980982,0.670,-0.345,10.040,23.600,10.400,38.800,-0.531,2.922,0.352
2019-06-09-14:51:14.000366,0.684,-0.378,10.122,-9.100,21.200,131.600,-0.328,2.945,0.445
2019-06-09-14:51:14.019785,0.660,-0.311,10.179,35.600,51.100,88.400,-0.352,2.711,0.484
2019-06-09-14:51:14.039254,0.658,-0.366,10.081,-4.500,68.900,217.000,-0.781,3.273,0.477
2019-06-09-14:51:14.058660,0.601,-0.340,10.086,2.200,-22.000,23.100,-0.055,2.930,0.305
2019-06-09-14:51:14.078093,0.641,-0.318,10.112,-20.800,23.500,156.200,-0.570,2.688,0.492
2019-06-09-14:51:14.097759,0.680,-0.357,10.126,28.000,96.000,190.800,-0.266,2.703,0.352
2019-06-09-14:51:14.117197,0.646,-0.330,10.086,-2.400,95.100,272.400,-0.758,3.031,0.266
2019-06-09-14:51:14.136662,0.658,-0.285,10.134,-0.800,-28.300,37.300,-0.305,2.906,0.484
2019-06-09-14:51:14.156084,0.622,-0.290,10.052,-3.800,-29.100,38.300,-0.492,2.703,0.461
2019-06-09-14:51:14.175461,0.656,-0.311,10.038,-7.900,-18.900,68.400,-0.492,3.078,0.414
2019-06-09-14:51:14.194830,0.608,-0.309,10.100,-2.400,80.600,256.500,-0.742,3.188,0.391
2019-06-09-14:51:14.214302,0.646,-0.352,10.107,39.400,86.400,162.000,-0.578,3.016,0.555
2019-06-09-14:51:14.233700,0.653,-0.313,10.093,-2.900,78.700,249.900,-0.492,3.094,0.570
2019-06-09-14:51:14.253250,0.632,-0.256,10.076,4.300,-24.000,41.500,-0.852,2.898,0.438
2019-06-09-14:51:14.272740,0.593,-0.256,10.033,-3.100,77.600,249.700,-0.750,2.688,0.391
2019-06-09-14:51:14.292164,0.687,-0.313,9.983,6.200,105.300,281.000,-0.953,2.875,0.242
2019-06-09-14:51:14.311697,0.658,-0.292,10.026,38.000,103.500,203.000,-0.930,2.758,0.414
2019-06-09-14:51:14.331184,0.632,-0.297,10.134,1.500,-23.600,51.300,-0.789,2.711,0.438
2019-06-09-14:51:14.350650,0.615,-0.273,10.079,36.100,111.600,223.200,-0.609,2.797,0.438
2019-06-09-14:51:14.370057,0.617,-0.325,10.062,22.800,17.700,64.600,-0.211,3.211,0.672
2019-06-09-14:51:14.389569,0.584,-0.316,10.110,13.100,-10.700,42.500,-0.531,2.844,0.570
2019-06-09-14:51:14.408980,0.636,-0.321,10.031,-6.700,66.400,223.500,-0.891,3.008,0.414
2019-06-09-14:51:14.428694,0.656,-0.340,10.129,37.500,79.800,158.000,-0.688,2.820,0.555
2019-06-09-14:51:14.448215,0.629,-0.311,10.169,-14.000,25.700,147.100,-0.664,2.859,0.422
2019-06-09-14:51:14.467742,0.677,-0.304,10.119,24.100,116.900,260.900,-0.789,2.898,0.461
2019-06-09-14:51:14.487151,0.696,-0.337,10.047,14.900,-0.200,50.800,-0.859,2.773,0.375
2019-06-09-14:51:14.506615,0.680,-0.309,10.141,33.000,85.500,165.800,-0.953,2.812,0.422
2019-06-09-14:51:14.526112,0.682,-0.330,10.169,12.900,112.400,268.900,-0.594,2.703,0.438
2019-06-09-14:51:14.545542,0.663,-0.376,10.086,-8.900,51.300,186.800,-0.570,2.922,0.445
2019-06-09-14:51:14.565068,0.658,-0.316,10.150,32.900,81.900,163.200,-0.734,2.797,0.398
2019-06-09-14:51:14.584490,0.694,-0.333,10.141,-11.900,39.200,160.100,-0.992,2.820,0.375
2019-06-09-14:51:14.606968,0.701,-0.330,10.110,30.800,62.500,124.900,-0.633,2.617,0.367
2019-06-09-14:51:14.626892,0.651,-0.337,10.122,-7.900,-39.200,18.300,-0.156,2.992,0.484
2019-06-09-14:51:14.646384,0.641,-0.359,10.079,24.500,101.200,220.500,-0.578,3.156,0.375
2019-06-09-14:51:14.668009,0.625,-0.290,10.129,19.700,70.200,177.900,-0.852,2.750,0.484
2019-06-09-14:51:14.687585,0.725,-0.304,10.153,38.300,90.600,164.400,-0.352,2.992,0.391
2019-06-09-14:51:14.707009,0.644,-0.342,10.093,2.900,100.200,275.500,-0.594,2.672,0.414
2019-06-09-14:51:14.726389,0.663,-0.354,10.162,-9.800,2.700,97.400,-0.516,2.883,0.508
2019-06-09-14:51:14.745857,0.677,-0.330,10.047,3.500,-2.100,64.200,-0.836,2.789,0.555
2019-06-09-14:51:14.765455,0.672,-0.323,10.064,-10.500,10.200,111.900,-0.375,2.648,0.367
2019-06-09-14:51:14.784982,0.656,-0.304,10.105,30.500,65.500,134.900,-0.359,3.016,0.438
2019-06-09-14:51:14.804538,0.634,-0.313,9.997,-6.200,69.000,213.200,-0.320,2.922,0.531
2019-06-09-14:51:14.824082,0.627,-0.304,10.079,31.500,92.300,180.900,-0.805,2.664,0.461
2019-06-09-14:51:14.843545,0.668,-0.342,10.107,-10.700,42.100,175.700,-0.438,2.750,0.398
2019-06-09-14:51:14.863017,0.670,-0.299,10.043,28.100,111.800,223.000,-0.438,2.664,0.414
2019-06-09-14:51:14.882452,0.581,-0.323,10.050,6.800,95.200,247.700,-0.469,2.992,0.438
2019-06-09-14:51:14.901848,0.632,-0.290,10.098,29.700,108.100,215.300,-0.641,2.758,0.422
2019-06-09-14:51:14.921433,0.627,-0.294,10.095,5.000,93.900,245.800,-0.156,2.617,0.578
2019-06-09-14:51:14.940847,0.670,-0.347,10.086,32.100,71.200,148.400,-0.008,2.703,0.242
2019-06-09-14:51:14.960300,0.615,-0.304,10.071,-8.000,-8.800,88.400,-0.438,2.844,0.266
2019-06-09-14:51:14.979719,0.677,-0.278,10.062,22.700,117.900,250.000,-0.516,2.773,0.445
2019-06-09-14:51:14.999110,0.680,-0.306,10.162,31.200,60.800,133.100,-0.641,2.789,0.688
2019-06-09-14:51:15.019000,0.660,-0.357,10.174,-6.900,63.700,204.100,-0.523,3.141,0.352
2019-06-09-14:51:15.038506,0.672,-0.337,10.126,19.700,27.700,78.700,-0.398,2.711,0.375
2019-06-09-14:51:15.058142,0.670,-0.340,10.143,3.500,1.300,66.000,-0.828,2.789,0.594
2019-06-09-14:51:15.077934,0.620,-0.282,10.052,18.800,126.000,276.300,-0.305,2.820,0.266
2019-06-09-14:51:15.097401,0.617,-0.323,10.083,31.800,80.300,167.600,-0.609,2.789,0.367
2019-06-09-14:51:15.116856,0.653,-0.333,10.105,-3.800,-5.200,83.400,-1.102,2.727,0.312
2019-06-09-14:51:15.136318,0.660,-0.313,10.083,13.500,123.400,284.600,-0.641,2.992,0.305
2019-06-09-14:51:15.155847,0.665,-0.345,10.215,13.400,8.700,60.800,-0.898,2.906,0.469
2019-06-09-14:51:15.175333,0.617,-0.301,10.095,29.500,107.000,220.500,-0.180,3.164,0.391
2019-06-09-14:51:15.194737,0.658,-0.340,10.124,-10.900,49.100,188.600,0.086,2.875,0.422
2019-06-09-14:51:15.214225,0.591,-0.357,10.141,-9.600,58.000,200.500,-0.352,2.859,0.219
2019-06-09-14:51:15.233635,0.651,-0.301,10.083,-11.700,42.000,179.100,-0.883,2.844,0.438
2019-06-09-14:51:15.253068,0.622,-0.368,10.172,-9.200,21.100,144.000,-0.703,2.984,0.625
2019-06-09-14:51:15.272660,0.670,-0.347,10.150,15.600,10.300,61.000,-0.570,2.727,0.555
2019-06-09-14:51:15.292114,0.648,-0.395,10.126,27.900,116.700,240.900,-0.750,2.727,0.438
2019-06-09-14:51:15.311640,0.651,-0.313,10.114,0.500,92.900,247.900,-1.141,2.602,0.375
2019-06-09-14:51:15.331142,0.648,-0.325,10.198,-13.100,43.700,184.900,-0.461,2.820,0.703
2019-06-09-14:51:15.350647,0.636,-0.345,10.119,20.700,121.900,266.400,-0.281,3.055,0.555
2019-06-09-14:51:15.370117,0.620,-0.337,10.091,-11.300,4.900,112.800,-0.641,2.945,0.367
2019-06-09-14:51:15.389635,0.708,-0.294,10.146,18.600,122.300,269.500,-0.609,2.859,0.688
2019-06-09-14:51:15.409040,0.680,-0.318,10.074,18.000,4.200,49.100,-0.570,2.820,0.422
2019-06-09-14:51:15.428424,0.692,-0.304,10.012,20.900,12.400,61.400,-0.766,3.102,0.234
2019-06-09-14:51:15.447890,0.648,-0.290,10.169,-11.900,13.200,127.400,-0.320,2.812,0.531
2019-06-09-14:51:15.467285,0.675,-0.280,10.076,30.800,119.300,234.000,-0.758,2.562,0.219
2019-06-09-14:51:15.486725,0.615,-0.352,10.055,-4.300,84.800,247.000,-0.586,2.789,0.578
2019-06-09-14:51:15.506112,0.672,-0.292,10.057,35.100,91.000,167.500,-0.789,2.844,0.445
2019-06-09-14:51:15.525529,0.620,-0.313,10.110,-24.700,-4.100,101.000,-0.805,2.453,0.664
2019-06-09-14:51:15.544972,0.663,-0.311,10.091,-5.200,-13.500,46.800,-0.469,2.789,0.328
2019-06-09-14:51:15.564411,0.656,-0.318,10.067,7.100,111.300,275.000,-0.516,3.141,0.352
2019-06-09-14:51:15.583871,0.641,-0.373,10.150,-9.700,58.000,220.500,-0.570,2.844,0.641
2019-06-09-14:51:15.603328,0.689,-0.354,10.079,3.600,104.900,273.300,-0.445,3.008,0.375
2019-06-09-14:51:15.622774,0.644,-0.313,10.033,-7.300,70.700,239.100,-0.445,2.844,0.398
2019-06-09-14:51:15.642198,0.660,-0.335,10.165,38.000,113.200,206.200,-0.688,3.016,0.391
2019-06-09-14:51:15.661727,0.644,-0.376,10.110,-12.700,44.800,208.900,-0.320,2.578,0.375
2019-06-09-14:51:15.681277,0.658,-0.316,10.081,12.500,-14.500,27.500,-0.727,2.664,0.289
2019-06-09-14:51:15.700702,0.706,-0.340,10.136,38.400,55.500,110.200,-0.609,2.969,0.281
2019-06-09-14:51:15.720077,0.656,-0.352,10.119,-14.400,-18.900,66.600,-0.297,3.070,0.461
2019-06-09-14:51:15.739563,0.656,-0.361,10.129,6.100,120.100,289.600,-1.117,2.688,0.438
2019-06-09-14:51:15.759096,0.689,-0.316,10.205,27.400,5.600,45.200,-0.469,2.859,0.391
2019-06-09-14:51:15.778607,0.617,-0.249,10.098,20.100,141.200,305.200,-0.641,2.625,0.398
2019-06-09-14:51:15.798118,0.648,-0.299,10.019,-14.400,43.800,208.000,-0.570,2.750,0.555
2019-06-09-14:51:15.818929,0.601,-0.280,10.043,-1.000,-30.300,18.100,-0.469,2.969,0.508
2019-06-09-14:51:15.838441,0.680,-0.306,10.155,11.700,-36.000,-4.500,-0.633,2.883,0.422
2019-06-09-14:51:15.857972,0.658,-0.258,10.019,44.800,96.000,167.200,-0.516,2.859,0.523
2019-06-09-14:51:15.877394,0.617,-0.311,10.033,-0.200,103.700,290.100,-0.789,2.930,0.398
2019-06-09-14:51:15.896870,0.605,-0.246,9.971,40.400,130.400,237.500,-0.328,2.898,0.266
2019-06-09-14:51:15.916267,0.658,-0.287,10.112,21.600,-10.400,22.000,-0.180,2.820,0.211
2019-06-09-14:51:15.935665,0.672,-0.318,10.071,44.600,108.900,191.400,-0.609,2.750,0.523
2019-06-09-14:51:15.955060,0.658,-0.297,10.055,20.600,136.500,301.800,-0.328,2.812,0.461
2019-06-09-14:51:15.974448,0.663,-0.311,10.038,40.600,57.400,103.600,-0.055,2.773,0.594
2019-06-09-14:51:15.993892,0.675,-0.299,10.019,-13.300,-21.400,48.600,-0.750,2.906,0.555
2019-06-09-14:51:16.013304,0.699,-0.280,10.122,33.200,34.200,70.100,-0.828,2.961,0.664
2019-06-09-14:51:16.032706,0.632,-0.342,10.083,-22.100,6.000,125.300,-0.930,2.648,0.391
2019-06-09-14:51:16.052089,0.653,-0.330,10.050,25.800,147.500,293.900,-0.758,2.898,0.367
2019-06-09-14:51:16.071624,0.622,-0.301,10.124,39.200,66.700,110.800,-0.594,2.773,0.555
2019-06-09-14:51:16.091229,0.603,-0.278,10.086,5.400,129.000,310.700,-0.438,2.789,0.547
2019-06-09-14:51:16.110700,0.660,-0.287,10.057,40.200,80.200,130.900,-0.492,2.820,0.547
2019-06-09-14:51:16.130124,0.687,-0.323,10.105,-19.600,37.100,200.200,-0.406,2.992,0.258
2019-06-09-14:51:16.151622,0.644,-0.325,10.114,37.300,142.900,257.100,-0.438,2.875,0.336
2019-06-09-14:51:16.171208,0.692,-0.311,10.134,30.400,148.800,288.800,-0.609,2.961,0.391
2019-06-09-14:51:16.190677,0.646,-0.301,10.052,23.800,-7.700,22.400,-0.500,3.133,0.461
2019-06-09-14:51:16.213045,0.641,-0.309,10.067,-20.900,25.300,182.100,-0.359,3.016,0.414
2019-06-09-14:51:16.232732,0.692,-0.345,10.122,11.300,-27.700,5.400,-0.664,2.750,0.367
2019-06-09-14:51:16.252345,0.668,-0.328,10.153,-21.300,21.100,168.700,-0.125,2.836,0.508
2019-06-09-14:51:16.271917,0.675,-0.333,10.220,33.900,151.500,277.500,-0.664,2.969,0.555
2019-06-09-14:51:16.291375,0.675,-0.364,10.124,-21.900,-18.300,70.000,-0.414,2.836,0.352
2019-06-09-14:51:16.310859,0.641,-0.347,10.064,11.900,139.200,314.000,-0.250,2.906,0.156
2019-06-09-14:51:16.330268,0.735,-0.275,10.198,-7.100,107.200,250.500,-0.617,3.055,0.375
2019-06-09-14:51:16.349678,0.675,-0.380,10.112,21.400,128.800,43.300,-0.656,2.812,0.188
2019-06-09-14:51:16.369078,0.636,-0.352,10.062,22.400,129.300,44.600,-0.391,2.906,0.523
2019-06-09-14:51:16.388473,0.617,-0.287,10.067,22.500,130.000,42.200,-0.836,2.625,0.211
2019-06-09-14:51:16.407925,0.665,-0.301,10.093,22.500,129.800,44.500,-0.422,2.945,0.289
2019-06-09-14:51:16.427328,0.715,-0.335,10.126,23.000,127.400,42.400,-0.750,2.812,0.891
2019-06-09-14:51:16.446722,0.675,-0.270,10.114,22.000,126.100,42.700,-0.508,2.859,0.367
2019-06-09-14:51:16.466112,0.634,-0.254,10.002,23.200,127.500,42.400,-0.664,2.930,0.391
2019-06-09-14:51:16.485487,0.625,-0.287,10.093,23.300,126.500,42.400,-0.766,3.016,0.617
