Time,Acceleration X (m/s^2),Acceleration Y (m/s^2),Acceleration Z (m/s^2),Magnetometer X (uTesla), Magnetometer Y (uTesla)  , Magnetometer Z (uTesla),Gyroscope X (radians/s), Gyroscope Y (radians/s), Gyroscope Z (radians/s)
2019-06-09-14:49:11.060280,0.670,-0.294,10.069,16.400,92.700,215.100,-0.562,2.773,0.328
2019-06-09-14:49:11.076039,0.581,-0.297,10.028,8.900,81.200,197.800,-0.508,2.797,0.391
2019-06-09-14:49:11.091678,0.670,-0.294,10.114,31.700,111.200,193.900,-0.953,2.602,0.617
2019-06-09-14:49:11.107275,0.660,-0.340,10.021,7.500,86.000,200.900,-0.953,2.469,0.555
2019-06-09-14:49:11.122881,0.663,-0.297,10.045,27.600,76.300,143.900,-0.703,2.883,0.398
2019-06-09-14:49:11.138834,0.639,-0.292,10.052,23.100,90.200,196.100,-0.727,2.961,0.289
2019-06-09-14:49:11.154522,0.660,-0.318,10.155,20.100,49.900,110.600,-0.633,2.648,0.398
2019-06-09-14:49:11.170123,0.663,-0.321,10.088,5.800,54.700,165.500,-0.555,3.078,0.242
2019-06-09-14:49:11.185722,0.653,-0.342,10.165,9.800,81.900,191.600,-0.383,3.133,0.414
2019-06-09-14:49:11.201326,0.634,-0.282,10.083,22.700,91.800,187.800,-0.414,2.961,0.398
2019-06-09-14:49:11.216913,0.644,-0.258,10.095,35.700,82.800,146.900,-0.727,2.836,0.445
2019-06-09-14:49:11.232598,0.660,-0.357,10.047,0.500,59.500,173.000,-0.445,3.102,0.391
2019-06-09-14:49:11.248260,0.656,-0.294,10.102,11.200,11.200,50.200,-0.867,3.133,0.328
2019-06-09-14:49:11.263884,0.672,-0.244,10.045,33.900,97.000,171.200,-0.516,2.758,0.570
2019-06-09-14:49:11.279481,0.656,-0.294,10.083,-13.400,47.400,203.900,-0.898,2.773,0.336
2019-06-09-14:49:11.295075,0.663,-0.251,10.055,5.000,1.700,53.600,-0.383,3.008,0.391
2019-06-09-14:49:11.310687,0.648,-0.313,10.136,18.000,93.300,207.600,-0.836,2.984,0.672
2019-06-09-14:49:11.326284,0.668,-0.304,10.131,25.300,38.500,78.700,-0.828,2.820,0.445
2019-06-09-14:49:11.341891,0.675,-0.304,10.024,11.700,26.000,96.200,-0.906,2.703,0.625
2019-06-09-14:49:11.357548,0.665,-0.256,10.040,34.200,76.500,134.900,-0.461,2.859,0.570
2019-06-09-14:49:11.373169,0.632,-0.352,10.088,6.200,-1.300,38.900,-0.641,3.055,0.195
2019-06-09-14:49:11.388805,0.646,-0.323,10.126,12.600,96.100,222.500,-0.516,2.789,0.367
2019-06-09-14:49:11.404454,0.634,-0.249,10.069,-2.600,25.200,115.500,-0.828,2.812,0.531
2019-06-09-14:49:11.421102,0.675,-0.263,10.148,8.200,4.400,72.600,-0.602,3.008,0.305
2019-06-09-14:49:11.440469,0.644,-0.282,10.083,-0.900,52.200,169.000,-1.141,2.758,0.594
2019-06-09-14:49:11.459812,0.644,-0.328,10.105,-3.600,35.000,132.500,-0.531,2.711,0.188
2019-06-09-14:49:11.479253,0.653,-0.323,10.167,18.900,54.300,119.600,-0.391,2.812,0.281
2019-06-09-14:49:11.498644,0.629,-0.311,10.067,14.100,93.100,219.200,-0.734,2.812,0.289
2019-06-09-14:49:11.518046,0.648,-0.282,10.064,4.200,16.600,92.500,-0.875,2.758,0.531
2019-06-09-14:49:11.537443,0.684,-0.292,10.100,7.600,40.000,128.200,-1.031,3.031,0.508
2019-06-09-14:49:11.556791,0.663,-0.292,10.088,16.200,25.100,94.000,-1.031,2.672,0.523
2019-06-09-14:49:11.576267,0.684,-0.304,10.026,7.700,97.100,243.800,-0.477,3.031,0.484
2019-06-09-14:49:11.595721,0.658,-0.292,10.052,12.200,76.900,184.100,-0.758,2.898,0.438
2019-06-09-14:49:11.615098,0.646,-0.321,10.057,-8.300,2.600,98.500,-0.680,2.344,0.547
2019-06-09-14:49:11.634532,0.675,-0.309,10.064,-1.700,71.200,218.400,-0.664,2.930,0.555
2019-06-09-14:49:11.653891,0.660,-0.268,10.117,3.000,17.300,82.100,-0.484,2.734,0.578
2019-06-09-14:49:11.673271,0.639,-0.328,10.043,-0.800,36.000,153.400,-0.633,2.906,0.469
2019-06-09-14:49:11.692620,0.665,-0.275,10.098,26.400,64.500,129.800,-0.414,2.844,0.523
2019-06-09-14:49:11.711962,0.660,-0.278,10.014,-1.400,31.200,142.900,-0.570,2.859,0.445
2019-06-09-14:49:11.731687,0.639,-0.263,9.968,-5.500,-2.600,70.800,-0.828,2.930,0.547
2019-06-09-14:49:11.751251,0.629,-0.251,10.028,3.300,95.700,259.500,-0.648,3.133,0.328
2019-06-09-14:49:11.770645,0.639,-0.225,10.071,28.000,36.400,72.600,-0.461,2.797,0.523
2019-06-09-14:49:11.789997,0.608,-0.232,9.961,-0.300,-13.400,45.300,-0.750,2.844,0.555
2019-06-09-14:49:11.809440,0.601,-0.299,10.071,13.400,117.900,274.100,-0.586,2.898,0.391
2019-06-09-14:49:11.830661,0.675,-0.261,10.086,-8.200,-11.600,71.400,-1.148,2.922,0.547
2019-06-09-14:49:11.850194,0.629,-0.285,10.012,31.900,127.600,243.500,-0.352,2.906,0.352
2019-06-09-14:49:11.869712,0.658,-0.261,10.057,34.100,51.400,95.300,-0.953,2.969,0.570
2019-06-09-14:49:11.889086,0.670,-0.268,10.124,38.900,107.600,191.000,-0.219,2.922,0.469
2019-06-09-14:49:11.908434,0.653,-0.280,10.069,16.600,-1.300,35.200,-0.438,2.922,0.414
2019-06-09-14:49:11.933149,0.627,-0.270,9.980,-6.400,-22.400,52.100,-0.539,2.562,0.578
2019-06-09-14:49:11.952694,0.601,-0.237,10.019,-3.500,81.500,247.800,-0.664,3.016,0.484
2019-06-09-14:49:11.972059,0.651,-0.261,10.047,7.600,113.100,280.400,-0.547,2.875,0.641
2019-06-09-14:49:11.991614,0.627,-0.337,10.047,12.500,123.100,287.200,-0.469,2.961,0.312
2019-06-09-14:49:12.011011,0.651,-0.273,10.083,-16.900,21.300,149.900,-0.766,3.008,0.688
2019-06-09-14:49:12.030451,0.672,-0.268,10.033,22.000,135.200,283.000,-0.680,2.820,0.391
2019-06-09-14:49:12.049819,0.670,-0.294,10.126,41.400,113.300,197.000,-0.469,2.992,0.484
2019-06-09-14:49:12.069172,0.620,-0.282,9.995,-0.500,70.400,214.700,-0.516,2.758,0.336
2019-06-09-14:49:12.088525,0.682,-0.280,10.062,32.600,103.700,192.900,-0.805,2.664,0.438
2019-06-09-14:49:12.107860,0.668,-0.294,10.079,34.800,89.800,167.800,-1.000,2.898,0.602
2019-06-09-14:49:12.127226,0.658,-0.287,10.138,36.300,76.000,142.600,-0.977,2.961,0.469
2019-06-09-14:49:12.146640,0.648,-0.292,10.081,-7.200,-47.900,4.100,-0.852,2.727,0.523
2019-06-09-14:49:12.166076,0.672,-0.311,10.028,19.200,4.500,53.500,-0.594,2.930,0.555
2019-06-09-14:49:12.185433,0.680,-0.282,10.079,17.700,-2.000,44.600,-0.391,2.883,0.375
2019-06-09-14:49:12.204774,0.670,-0.297,10.119,-11.700,-29.900,43.500,-0.789,2.875,0.555
2019-06-09-14:49:12.224198,0.636,-0.311,10.093,7.900,-17.500,32.900,-0.781,3.016,0.445
2019-06-09-14:49:12.243728,0.639,-0.263,9.985,27.800,23.000,64.300,-1.102,2.961,0.445
2019-06-09-14:49:12.263167,0.703,-0.258,10.114,-15.400,12.500,128.100,-0.727,2.711,0.391
2019-06-09-14:49:12.282524,0.636,-0.294,10.067,36.600,113.900,195.800,-0.906,2.820,0.570
2019-06-09-14:49:12.301879,0.625,-0.297,10.045,36.500,105.800,180.900,-0.805,2.898,0.422
2019-06-09-14:49:12.321340,0.672,-0.309,10.031,-1.400,-18.100,38.000,-0.594,2.961,0.266
2019-06-09-14:49:12.341455,0.675,-0.297,10.079,38.000,99.500,165.300,-0.555,3.008,0.461
2019-06-09-14:49:12.360913,0.684,-0.270,10.040,36.500,94.900,156.200,-0.656,2.984,0.445
2019-06-09-14:49:12.380285,0.682,-0.249,10.045,37.100,95.100,161.200,-0.461,2.836,0.391
2019-06-09-14:49:12.399643,0.706,-0.266,10.110,37.400,96.500,158.600,-0.469,2.922,0.508
2019-06-09-14:49:12.420700,0.648,-0.251,10.002,34.100,126.900,226.000,-0.750,2.961,0.547
2019-06-09-14:49:12.440214,0.625,-0.270,10.050,30.100,131.500,245.800,-0.727,2.812,0.188
2019-06-09-14:49:12.459679,0.680,-0.297,10.062,25.700,134.700,262.000,-0.352,2.898,0.398
2019-06-09-14:49:12.479082,0.632,-0.249,9.983,21.000,134.400,273.300,-0.641,2.883,0.523
2019-06-09-14:49:12.498665,0.651,-0.278,10.045,37.700,111.600,191.900,-0.656,2.984,0.289
2019-06-09-14:49:12.518045,0.730,-0.263,10.043,31.600,44.300,85.100,-0.711,2.859,0.703
2019-06-09-14:49:12.537412,0.658,-0.244,10.009,34.500,56.800,104.100,-0.781,3.031,0.594
2019-06-09-14:49:12.556835,0.660,-0.292,10.098,34.500,126.200,225.700,-0.156,2.875,0.336
2019-06-09-14:49:12.576232,0.670,-0.304,10.100,31.700,135.900,245.400,-0.484,2.859,0.641
2019-06-09-14:49:12.595611,0.680,-0.299,10.059,29.700,139.900,266.300,-0.648,3.289,0.422
2019-06-09-14:49:12.614943,0.639,-0.299,10.055,17.200,138.300,291.300,-0.617,3.094,0.531
2019-06-09-14:49:12.634375,0.644,-0.354,10.076,46.800,102.900,161.000,-0.586,2.672,0.570
2019-06-09-14:49:12.653789,0.670,-0.337,10.177,-21.900,-12.000,89.700,-0.594,3.008,0.375
2019-06-09-14:49:12.673147,0.670,-0.330,10.126,-14.400,-35.800,33.100,-0.586,2.820,0.336
2019-06-09-14:49:12.692502,0.680,-0.328,10.117,33.600,148.000,280.500,-0.344,2.984,0.438
2019-06-09-14:49:12.711836,0.656,-0.292,10.134,44.900,67.400,116.300,-0.516,2.969,0.641
2019-06-09-14:49:12.731355,0.644,-0.321,10.071,17.500,-23.800,5.300,-0.586,2.961,0.398
2019-06-09-14:49:12.750953,0.656,-0.261,10.064,41.500,49.400,88.100,-0.859,3.102,0.625
2019-06-09-14:49:12.770358,0.634,-0.313,10.059,-22.600,-4.500,115.700,-0.539,3.211,0.375
2019-06-09-14:49:12.789712,0.689,-0.246,10.014,49.100,91.700,146.500,-0.516,2.906,0.711
2019-06-09-14:49:12.809054,0.625,-0.263,10.016,5.500,121.800,309.300,-0.773,2.922,0.492
2019-06-09-14:49:12.828437,0.639,-0.301,10.098,-15.800,-40.800,29.800,-0.562,2.797,0.508
2019-06-09-14:49:12.847928,0.632,-0.270,10.019,8.000,131.100,319.200,-0.008,3.133,0.281
2019-06-09-14:49:12.867397,0.605,-0.270,9.985,-5.900,91.600,284.400,-0.469,2.969,0.461
2019-06-09-14:49:12.886821,0.632,-0.290,9.971,-21.600,-27.700,58.600,-0.539,2.922,0.438
2019-06-09-14:49:12.906228,0.668,-0.261,10.019,-11.400,-44.300,11.800,-0.789,2.898,0.492
2019-06-09-14:49:12.925597,0.625,-0.246,10.083,26.100,138.000,289.000,-0.789,2.945,0.398
2019-06-09-14:49:12.944952,0.658,-0.333,10.062,13.700,-30.900,-3.300,-0.414,2.922,0.508
2019-06-09-14:49:12.964407,0.629,-0.290,10.158,-10.500,-45.500,5.800,-0.055,2.906,0.422
2019-06-09-14:49:12.983850,0.675,-0.299,10.146,-22.200,6.200,144.000,-0.445,2.922,0.484
2019-06-09-14:49:13.003250,0.658,-0.347,10.143,46.700,73.500,121.400,-1.055,2.812,0.555
2019-06-09-14:49:13.022614,0.622,-0.340,10.201,37.600,18.800,45.500,-0.727,2.930,0.484
2019-06-09-14:49:13.042292,0.646,-0.321,10.095,20.300,145.400,315.700,-0.930,2.789,0.391
2019-06-09-14:49:13.061858,0.629,-0.330,10.059,1.200,101.700,282.100,-0.352,2.898,0.570
2019-06-09-14:49:13.081330,0.627,-0.325,10.169,33.300,48.000,97.800,-0.734,2.836,0.391
2019-06-09-14:49:13.100701,0.615,-0.301,10.105,-13.500,85.300,271.400,-0.531,2.648,0.211
2019-06-09-14:49:13.120068,0.687,-0.323,10.047,-8.500,-43.300,-3.400,-0.781,3.016,0.375
2019-06-09-14:49:13.142913,0.627,-0.282,10.050,-18.600,-42.600,26.500,-0.539,2.859,0.312
2019-06-09-14:49:13.162427,0.641,-0.256,10.112,-3.600,98.200,291.400,-0.734,2.992,0.391
2019-06-09-14:49:13.181857,0.615,-0.335,10.055,40.200,36.700,71.800,-0.688,3.102,0.508
2019-06-09-14:49:13.201315,0.601,-0.330,10.091,22.200,115.200,265.400,-0.023,2.961,0.469
2019-06-09-14:49:13.220703,0.660,-0.258,10.069,40.000,146.700,256.500,-0.781,2.859,0.438
2019-06-09-14:49:13.240170,0.651,-0.258,10.055,12.300,-23.300,-0.200,-0.508,2.984,0.422
2019-06-09-14:49:13.259685,0.632,-0.304,10.007,-8.900,-40.900,9.700,-0.656,2.883,0.445
2019-06-09-14:49:13.279139,0.639,-0.294,10.095,0.900,120.100,304.500,-0.570,2.820,0.492
2019-06-09-14:49:13.298500,0.668,-0.299,10.093,-9.100,-41.100,9.900,-0.859,3.047,0.445
2019-06-09-14:49:13.327019,0.646,-0.321,10.126,-4.900,-44.700,10.600,-0.570,2.758,0.531
2019-06-09-14:49:13.346535,0.682,-0.309,10.050,19.700,-23.800,3.400,-0.727,2.328,0.461
2019-06-09-14:49:13.365974,0.675,-0.340,10.126,-6.000,-47.000,11.100,-0.328,2.906,0.367
2019-06-09-14:49:13.385387,0.660,-0.294,10.138,27.200,-3.900,21.400,-0.656,2.711,0.531
2019-06-09-14:49:13.404740,0.641,-0.282,10.124,22.500,-17.200,7.300,-0.594,2.922,0.312
2019-06-09-14:49:13.424158,0.675,-0.270,10.024,13.500,126.800,308.500,-0.727,2.961,0.469
2019-06-09-14:49:13.443515,0.689,-0.301,10.045,14.700,127.400,306.200,-0.898,2.812,0.391
2019-06-09-14:49:13.462901,0.672,-0.273,10.050,-1.600,-36.900,14.800,-0.547,2.883,0.531
2019-06-09-14:49:13.482406,0.632,-0.273,10.000,29.900,9.800,44.000,-0.414,2.797,0.844
2019-06-09-14:49:13.501823,0.620,-0.263,10.021,33.700,17.100,46.400,-0.688,2.797,0.391
2019-06-09-14:49:13.521267,0.610,-0.325,10.112,44.700,101.400,170.600,-0.898,2.648,0.414
2019-06-09-14:49:13.544106,0.670,-0.268,10.105,32.900,139.200,274.300,-0.484,2.773,0.367
2019-06-09-14:49:13.563583,0.675,-0.230,10.047,-6.400,-32.700,25.900,-0.844,3.117,0.461
2019-06-09-14:49:13.583078,0.675,-0.280,10.014,-17.200,-6.100,112.100,-0.641,2.789,0.555
2019-06-09-14:49:13.602454,0.601,-0.261,10.014,2.400,115.300,306.300,-0.508,2.859,0.492
2019-06-09-14:49:13.621826,0.689,-0.261,10.093,-3.300,-33.200,21.800,-0.992,2.750,0.469
2019-06-09-14:49:13.641278,0.632,-0.313,10.016,45.600,84.600,141.200,-0.836,2.812,0.391
2019-06-09-14:49:13.660627,0.620,-0.280,10.038,51.100,119.100,194.800,-0.758,3.016,0.469
2019-06-09-14:49:13.680108,0.620,-0.287,10.074,8.100,-31.400,6.000,-0.641,2.688,0.375
2019-06-09-14:49:13.699573,0.694,-0.306,10.014,39.600,139.600,236.700,-0.680,2.945,0.531
2019-06-09-14:49:13.718941,0.675,-0.244,10.012,33.600,38.200,69.600,-0.297,3.016,0.219
2019-06-09-14:49:13.738436,0.627,-0.225,10.088,44.100,110.600,175.900,-0.516,2.758,0.555
2019-06-09-14:49:13.757883,0.665,-0.297,10.100,37.500,151.700,265.400,-0.367,2.984,0.594
2019-06-09-14:49:13.777255,0.648,-0.299,10.000,-23.100,-21.100,74.500,-0.641,2.898,0.352
2019-06-09-14:49:13.796882,0.648,-0.251,10.062,29.100,12.200,35.400,-0.789,2.836,0.617
2019-06-09-14:49:13.816332,0.658,-0.301,10.055,-1.700,118.900,303.500,-1.016,2.883,0.336
2019-06-09-14:49:13.835829,0.668,-0.287,10.024,44.900,113.200,176.300,-0.688,2.883,0.289
2019-06-09-14:49:13.855207,0.641,-0.321,10.093,34.100,157.700,287.200,-0.484,2.883,0.414
2019-06-09-14:49:13.874586,0.625,-0.342,10.126,2.500,-37.200,-8.400,-0.664,2.641,0.555
2019-06-09-14:49:13.894103,0.641,-0.270,10.095,40.700,70.100,109.600,-0.711,2.930,0.531
2019-06-09-14:49:13.913503,0.634,-0.287,10.134,-21.700,-30.300,49.100,-0.586,2.930,0.352
2019-06-09-14:49:13.932847,0.639,-0.256,10.031,-26.500,16.200,159.600,-0.492,2.711,0.461
2019-06-09-14:49:13.952178,0.684,-0.306,9.985,-24.000,30.300,184.900,-0.750,2.812,0.602
2019-06-09-14:49:13.971632,0.636,-0.318,10.040,1.500,-33.400,-1.500,-0.789,2.969,0.375
2019-06-09-14:49:13.991204,0.646,-0.234,10.100,-23.700,-19.900,80.400,-0.586,2.688,0.469
2019-06-09-14:49:14.010607,0.627,-0.292,10.035,45.900,82.500,125.700,-0.453,2.992,0.336
2019-06-09-14:49:14.029967,0.620,-0.237,9.971,11.500,1.700,34.000,-0.711,3.352,0.383
2019-06-09-14:49:14.049894,0.605,-0.254,10.055,24.900,8.500,30.000,-0.836,2.758,0.211
2019-06-09-14:49:14.069434,0.625,-0.266,10.004,-9.200,78.100,267.200,-0.523,3.047,0.531
2019-06-09-14:49:14.088908,0.689,-0.309,10.088,44.600,141.500,256.800,-0.969,2.773,0.352
2019-06-09-14:49:14.108278,0.636,-0.294,10.083,47.700,123.400,214.500,-0.531,2.836,0.461
2019-06-09-14:49:14.127713,0.703,-0.273,10.088,48.500,84.300,139.800,-0.945,2.875,0.461
2019-06-09-14:49:14.147115,0.672,-0.294,10.057,-18.700,31.600,193.800,-0.398,2.992,0.578
2019-06-09-14:49:14.166490,0.632,-0.287,10.007,35.000,151.200,295.900,-0.570,2.969,0.594
2019-06-09-14:49:14.185979,0.648,-0.294,10.038,-22.900,-8.300,114.900,-0.625,3.016,0.508
2019-06-09-14:49:14.205356,0.644,-0.280,10.004,-3.200,96.100,291.000,-0.547,2.836,0.336
2019-06-09-14:49:14.224707,0.603,-0.273,10.047,9.300,126.800,315.100,-0.156,2.898,0.594
2019-06-09-14:49:14.244257,0.646,-0.321,10.028,-19.200,27.900,181.000,-0.531,2.812,0.617
2019-06-09-14:49:14.263697,0.641,-0.275,9.866,-13.000,-36.700,36.600,-0.297,2.789,0.461
2019-06-09-14:49:14.283249,0.699,-0.347,10.160,-5.000,-40.200,12.600,-0.594,2.875,0.555
2019-06-09-14:49:14.302831,0.660,-0.318,10.091,-0.700,97.600,289.500,-0.258,3.164,0.422
2019-06-09-14:49:14.322293,0.701,-0.304,10.150,-18.600,12.800,148.300,-0.625,3.156,0.469
2019-06-09-14:49:14.345469,0.627,-0.285,10.050,-3.400,-37.300,14.800,-0.547,2.875,0.414
2019-06-09-14:49:14.364933,0.634,-0.313,10.024,-19.100,14.600,152.900,-0.719,3.055,0.188
2019-06-09-14:49:14.384703,0.672,-0.297,10.064,7.700,114.400,300.300,-0.539,2.734,0.602
2019-06-09-14:49:14.404297,0.687,-0.333,10.114,-12.100,44.200,215.200,-0.359,3.047,0.461
2019-06-09-14:49:14.423749,0.675,-0.316,10.086,13.000,-27.000,8.700,-0.664,2.961,0.531
2019-06-09-14:49:14.443140,0.634,-0.309,10.067,40.600,51.500,94.500,-0.359,3.141,0.523
2019-06-09-14:49:14.462504,0.625,-0.311,10.098,47.900,61.300,97.000,-0.688,3.141,0.469
2019-06-09-14:49:14.481903,0.644,-0.345,10.160,-14.500,-15.400,79.400,-0.375,2.789,0.422
2019-06-09-14:49:14.501417,0.689,-0.270,10.033,-17.300,-22.500,62.700,-1.094,2.969,0.352
2019-06-09-14:49:14.520814,0.648,-0.301,10.028,15.200,-36.900,-1.700,-0.922,2.789,0.328
2019-06-09-14:49:14.540174,0.605,-0.273,10.059,-18.000,38.400,203.800,-0.805,2.836,0.438
2019-06-09-14:49:14.559827,0.670,-0.263,10.026,-11.800,61.600,246.700,-0.836,2.992,0.422
2019-06-09-14:49:14.579494,0.636,-0.301,10.076,-18.200,-33.900,50.800,-0.617,2.734,0.391
2019-06-09-14:49:14.599010,0.639,-0.316,9.990,38.900,163.900,307.200,-0.633,2.734,0.352
2019-06-09-14:49:14.618430,0.670,-0.273,10.047,-19.400,-23.600,52.200,-0.438,2.812,0.570
2019-06-09-14:49:14.637871,0.727,-0.225,10.035,28.300,13.400,33.500,-0.508,2.836,0.336
2019-06-09-14:49:14.657229,0.660,-0.340,10.026,42.300,132.800,221.600,-0.594,2.820,0.422
2019-06-09-14:49:14.676580,0.636,-0.225,10.050,0.600,116.500,304.900,-0.594,2.859,0.484
2019-06-09-14:49:14.696010,0.660,-0.261,10.028,-2.200,112.400,301.200,-0.469,2.984,0.336
2019-06-09-14:49:14.715425,0.641,-0.278,10.035,-24.000,-6.700,87.000,-0.648,2.930,0.711
2019-06-09-14:49:14.741524,0.579,-0.280,10.043,-6.400,76.300,264.200,-0.836,3.070,0.758
2019-06-09-14:49:14.761167,0.641,-0.335,9.961,-16.100,-21.900,64.800,-0.953,3.016,0.312
2019-06-09-14:49:14.780563,0.615,-0.254,10.045,34.400,25.000,60.700,-0.539,2.984,0.672
2019-06-09-14:49:14.799917,0.615,-0.282,10.086,40.400,132.900,252.500,-0.484,2.750,0.469
2019-06-09-14:49:14.819423,0.639,-0.280,10.038,7.400,116.300,299.000,-0.242,2.844,0.242
2019-06-09-14:49:14.840756,0.644,-0.290,10.016,-18.000,9.400,147.100,-0.734,2.961,0.422
2019-06-09-14:49:14.860182,0.634,-0.268,10.031,48.700,96.000,155.700,-0.797,3.078,0.312
2019-06-09-14:49:14.879614,0.687,-0.278,10.050,40.200,54.500,103.600,-0.727,2.820,0.594
2019-06-09-14:49:14.898987,0.696,-0.299,10.059,41.300,71.200,125.200,-0.805,2.750,0.523
2019-06-09-14:49:14.918418,0.672,-0.273,10.057,34.200,131.200,263.300,-1.000,2.711,0.648
2019-06-09-14:49:14.937860,0.641,-0.301,10.067,-15.900,41.200,203.500,-0.727,2.922,0.414
2019-06-09-14:49:14.957207,0.677,-0.290,10.071,22.100,145.200,295.200,-0.445,3.141,0.375
2019-06-09-14:49:14.976540,0.636,-0.256,10.035,-1.100,113.400,293.400,-0.758,2.922,0.578
2019-06-09-14:49:14.996061,0.636,-0.220,10.009,29.900,30.500,63.200,-0.953,2.602,0.641
2019-06-09-14:49:15.015524,0.658,-0.287,10.069,-0.800,-30.200,14.800,-0.688,3.031,0.242
2019-06-09-14:49:15.034912,0.660,-0.304,10.091,-14.600,-22.000,43.900,-0.445,3.055,0.672
2019-06-09-14:49:15.054711,0.663,-0.294,10.155,21.700,143.400,291.500,-0.273,2.945,0.602
2019-06-09-14:49:15.074200,0.668,-0.287,10.067,36.100,137.500,245.500,-0.641,2.898,0.484
2019-06-09-14:49:15.093573,0.665,-0.364,10.102,-17.800,40.300,200.600,-0.227,2.922,0.469
2019-06-09-14:49:15.112891,0.639,-0.287,10.067,12.200,-18.700,20.000,-1.000,2.820,0.594
2019-06-09-14:49:15.132345,0.617,-0.321,10.193,-8.200,93.400,273.900,-0.812,2.703,0.555
2019-06-09-14:49:15.153394,0.660,-0.318,9.997,-19.900,-16.300,66.600,-0.766,3.094,0.555
2019-06-09-14:49:15.178558,0.632,-0.251,10.081,43.500,71.600,126.400,-1.023,2.812,0.484
2019-06-09-14:49:15.198595,0.653,-0.273,10.079,49.000,116.400,193.400,-0.281,3.055,0.352
2019-06-09-14:49:15.218149,0.658,-0.297,10.052,43.200,136.700,246.800,-0.438,2.906,0.289
2019-06-09-14:49:15.237769,0.651,-0.290,10.158,34.100,147.100,264.400,-0.445,2.945,0.398
2019-06-09-14:49:15.257275,0.677,-0.349,10.100,42.200,125.200,206.900,-0.656,2.898,0.438
2019-06-09-14:49:15.276713,0.689,-0.323,10.067,-19.300,-22.400,52.500,-0.789,2.836,0.289
2019-06-09-14:49:15.296119,0.660,-0.325,10.095,-2.300,-32.700,5.900,-0.195,2.836,0.508
2019-06-09-14:49:15.315566,0.682,-0.337,10.112,41.100,77.700,123.600,0.000,2.898,0.375
2019-06-09-14:49:15.334994,0.625,-0.340,10.124,-19.100,47.100,208.400,-0.977,2.773,0.328
2019-06-09-14:49:15.354377,0.687,-0.268,10.043,-9.500,-36.800,14.100,-0.344,2.906,0.281
2019-06-09-14:49:15.373785,0.670,-0.313,10.162,41.100,61.800,98.200,-0.516,2.797,0.258
2019-06-09-14:49:15.393131,0.653,-0.323,10.076,-3.400,-37.500,3.600,-0.789,2.859,0.445
2019-06-09-14:49:15.412481,0.644,-0.368,10.138,-17.000,-29.500,40.500,-0.344,2.844,0.492
2019-06-09-14:49:15.431878,0.617,-0.325,10.146,-9.500,54.200,214.300,-0.047,3.031,0.492
2019-06-09-14:49:15.451320,0.636,-0.278,9.959,-5.900,-29.800,24.400,-0.773,2.758,0.523
2019-06-09-14:49:15.470661,0.641,-0.258,10.021,-16.700,13.700,127.400,-0.820,2.992,0.508
2019-06-09-14:49:15.490038,0.620,-0.258,9.964,-10.000,8.400,104.600,-1.258,2.875,0.312
2019-06-09-14:49:15.509568,0.617,-0.261,10.012,-1.800,82.900,249.800,-1.047,2.961,0.602
2019-06-09-14:49:15.528987,0.689,-0.290,10.026,29.200,81.700,155.100,-0.805,2.734,0.773
2019-06-09-14:49:15.548967,0.648,-0.275,10.076,34.800,113.100,205.000,-0.352,2.734,0.289
2019-06-09-14:49:15.569951,0.680,-0.325,10.088,34.600,43.100,71.700,-0.547,2.758,0.648
2019-06-09-14:49:15.589577,0.670,-0.287,10.050,26.000,153.600,299.900,-0.422,2.859,0.445
2019-06-09-14:49:15.609008,0.648,-0.325,10.148,40.900,126.400,213.600,-0.641,2.945,0.336
2019-06-09-14:49:15.628471,0.644,-0.290,10.062,11.600,142.100,313.100,-0.602,3.016,0.312
2019-06-09-14:49:15.647865,0.627,-0.306,10.102,16.800,8.900,59.000,-0.328,2.930,0.391
2019-06-09-14:49:15.667214,0.653,-0.285,9.964,8.600,-42.700,-1.100,-0.758,3.078,0.617
2019-06-09-14:49:15.686585,0.615,-0.273,10.076,-14.100,54.700,237.300,-0.859,2.734,0.336
2019-06-09-14:49:15.706029,0.613,-0.275,10.057,39.500,37.200,71.400,-0.617,3.117,0.172
2019-06-09-14:49:15.725506,0.660,-0.311,10.105,-1.900,100.000,292.000,-0.734,3.008,0.523
2019-06-09-14:49:15.745017,0.636,-0.316,10.071,33.800,9.100,41.000,-0.586,2.648,0.391
2019-06-09-14:49:15.764455,0.672,-0.361,10.148,18.300,140.100,314.100,-0.555,2.992,0.445
2019-06-09-14:49:15.783806,0.646,-0.383,10.150,-19.600,7.800,147.500,-0.742,2.992,0.398
2019-06-09-14:49:15.803172,0.668,-0.392,10.198,-19.800,-24.500,74.700,-0.492,2.859,0.352
2019-06-09-14:49:15.822516,0.629,-0.328,10.098,-19.100,25.500,183.400,-0.656,2.883,0.602
2019-06-09-14:49:15.841943,0.677,-0.328,10.062,2.800,-45.400,-1.300,-0.422,3.031,0.578
2019-06-09-14:49:15.861288,0.644,-0.292,10.074,39.400,31.200,68.000,-0.719,3.102,0.398
2019-06-09-14:49:15.880652,0.644,-0.361,10.114,-19.200,23.300,175.800,-0.703,2.922,0.305
2019-06-09-14:49:15.900009,0.677,-0.347,9.992,14.500,80.700,209.100,-0.273,3.008,0.461
2019-06-09-14:49:15.919429,0.658,-0.306,10.100,-0.800,90.400,272.100,-0.734,2.992,0.492
2019-06-09-14:49:15.944310,0.660,-0.273,10.038,1.300,-12.400,60.500,-0.703,2.812,0.438
2019-06-09-14:49:15.963815,0.658,-0.282,10.088,13.600,-35.200,0.000,-0.695,3.180,0.438
2019-06-09-14:49:15.983228,0.703,-0.328,10.134,45.800,125.200,215.200,-0.750,2.812,0.461
2019-06-09-14:49:16.002618,0.632,-0.371,10.186,7.500,122.300,311.800,-0.516,2.898,0.289
2019-06-09-14:49:16.021977,0.665,-0.357,10.112,15.200,137.800,317.000,-0.344,2.703,0.555
2019-06-09-14:49:16.041500,0.694,-0.383,10.177,47.400,97.000,162.300,-0.594,3.156,0.664
2019-06-09-14:49:16.061168,0.634,-0.239,10.052,-8.000,-45.100,11.600,-0.906,2.984,0.422
2019-06-09-14:49:16.080827,0.694,-0.285,10.134,37.700,57.900,114.300,-0.727,2.945,0.547
2019-06-09-14:49:16.100303,0.641,-0.292,10.031,44.500,60.500,102.000,-0.539,2.930,0.398
2019-06-09-14:49:16.119729,0.663,-0.232,10.119,20.400,78.000,192.100,-0.758,3.164,0.484
2019-06-09-14:49:16.139165,0.632,-0.278,9.964,-7.400,77.300,250.900,-0.594,3.141,0.367
2019-06-09-14:49:16.158527,0.574,-0.301,10.062,23.600,52.700,128.000,-0.641,3.008,0.484
2019-06-09-14:49:16.177872,0.603,-0.275,9.990,16.700,117.600,271.900,-0.852,2.922,0.336
2019-06-09-14:49:16.197214,0.636,-0.225,10.035,-7.400,86.200,273.900,-0.789,2.922,0.195
2019-06-09-14:49:16.216549,0.694,-0.347,10.064,-23.000,26.600,171.800,-0.711,2.859,0.648
2019-06-09-14:49:16.236220,0.651,-0.318,10.071,-24.900,2.900,124.700,-0.375,2.500,0.375
2019-06-09-14:49:16.255696,0.627,-0.278,10.124,32.800,138.300,259.300,-0.586,2.797,0.195
2019-06-09-14:49:16.275103,0.670,-0.290,10.093,-14.900,73.200,252.300,-0.469,2.688,0.602
2019-06-09-14:49:16.294475,0.641,-0.311,10.057,17.000,-11.900,11.300,-0.828,2.820,0.367
2019-06-09-14:49:16.313839,0.718,-0.323,10.205,17.700,82.000,53.900,-0.461,2.836,0.523
2019-06-09-14:49:16.335121,0.696,-0.337,9.995,23.000,129.400,43.900,-0.773,2.750,0.531
2019-06-09-14:49:16.354651,0.658,-0.311,10.160,21.800,129.000,43.600,-0.766,3.055,0.328
2019-06-09-14:49:16.374118,0.656,-0.352,10.146,23.200,129.500,44.900,-0.523,3.016,0.422
2019-06-09-14:49:16.393503,0.672,-0.268,10.009,22.400,128.900,43.900,-0.484,2.969,0.305
2019-06-09-14:49:16.412930,0.644,-0.266,10.086,23.100,130.100,44.300,-0.695,3.047,0.352
2019-06-09-14:49:16.432339,0.632,-0.299,10.062,21.700,129.100,43.400,-1.125,2.883,0.375
2019-06-09-14:49:16.451752,0.663,-0.318,10.076,22.400,128.500,43.900,-0.398,2.797,0.312
2019-06-09-14:49:16.471187,0.648,-0.313,10.172,22.400,128.500,43.200,-0.633,2.922,0.352
2019-06-09-14:49:16.490577,0.653,-0.368,10.184,23.100,129.600,43.100,-0.781,2.812,0.367
2019-06-09-14:49:16.509944,0.663,-0.263,10.112,22.400,129.000,44.500,-0.641,3.031,0.258
2019-06-09-14:49:16.529374,0.644,-0.266,10.021,22.000,129.100,44.000,-0.508,2.984,0.523
2019-06-09-14:49:16.548781,0.613,-0.244,10.093,22.800,129.300,44.100,-0.617,3.055,0.547
2019-06-09-14:49:16.568149,0.675,-0.270,10.014,23.100,129.000,46.000,-0.859,2.797,0.484
2019-06-09-14:49:16.587695,0.656,-0.290,10.012,22.400,129.000,43.400,-0.922,2.922,0.375
2019-06-09-14:49:16.607079,0.629,-0.261,10.043,21.400,129.000,44.200,-0.641,3.031,0.367
2019-06-09-14:49:16.626446,0.665,-0.270,10.019,21.800,128.800,44.200,-0.492,3.047,0.414
2019-06-09-14:49:16.645899,0.660,-0.285,10.059,22.500,129.400,42.200,-0.625,3.016,0.375
2019-06-09-14:49:16.665339,0.632,-0.301,10.033,23.700,128.000,44.500,-0.508,2.883,0.445
2019-06-09-14:49:16.684697,0.636,-0.261,10.050,23.500,127.600,42.800,-0.758,3.008,0.727
2019-06-09-14:49:16.704130,0.660,-0.273,10.031,24.100,128.600,44.800,-0.180,2.844,0.352
2019-06-09-14:49:16.723496,0.644,-0.275,10.045,22.100,128.200,45.600,-0.656,2.969,0.281
2019-06-09-14:49:16.749271,0.627,-0.273,10.043,23.800,129.100,44.100,-0.719,3.055,0.445
2019-06-09-14:49:16.768829,0.665,-0.287,10.102,23.300,128.400,44.600,-0.562,2.703,0.391
2019-06-09-14:49:16.788216,0.665,-0.309,10.064,22.600,129.200,43.600,-0.633,2.773,0.312
2019-06-09-14:49:16.807672,0.608,-0.278,10.019,22.500,128.700,43.500,-0.484,2.883,0.469
2019-06-09-14:49:16.827033,0.644,-0.280,10.093,22.200,129.000,44.100,-0.820,2.992,0.547
2019-06-09-14:49:16.846377,0.646,-0.297,10.081,23.100,129.700,44.500,-0.484,2.797,0.219
2019-06-09-14:49:16.865847,0.644,-0.316,10.091,22.200,128.300,43.800,-0.711,3.094,0.688
2019-06-09-14:49:16.885212,0.646,-0.313,10.069,22.800,130.100,44.300,-0.734,2.773,0.523
2019-06-09-14:49:16.904556,0.696,-0.330,10.119,22.200,128.300,44.200,-0.344,2.734,0.391
2019-06-09-14:49:16.923883,0.660,-0.318,10.107,22.900,129.100,43.200,-0.836,3.078,0.398
2019-06-09-14:49:16.943204,0.653,-0.311,10.146,22.400,127.800,42.900,-0.703,2.578,0.367
2019-06-09-14:49:16.962580,0.701,-0.301,10.102,22.800,128.400,43.200,-0.602,3.133,0.445
2019-06-09-14:49:16.982120,0.656,-0.309,10.110,22.900,128.600,43.600,-0.305,3.266,0.445
2019-06-09-14:49:17.001669,0.639,-0.309,10.093,23.200,128.600,43.800,-0.750,2.797,0.422
2019-06-09-14:49:17.021151,0.641,-0.306,10.069,23.400,128.800,43.100,-0.508,2.625,0.289
2019-06-09-14:49:17.040527,0.660,-0.313,10.136,22.600,128.500,44.500,-0.672,3.047,0.305
2019-06-09-14:49:17.059888,0.634,-0.335,10.146,23.600,128.900,42.100,-0.695,3.031,0.391
2019-06-09-14:49:17.079409,0.648,-0.318,10.098,23.200,128.300,43.900,-0.906,2.789,0.414
2019-06-09-14:49:17.098791,0.668,-0.258,10.148,23.200,127.800,44.200,-0.688,2.836,0.492
2019-06-09-14:49:17.118150,0.629,-0.273,10.033,23.900,128.300,44.100,-0.562,2.945,0.375
2019-06-09-14:49:17.143098,0.656,-0.268,10.057,23.800,128.100,43.300,-0.805,2.922,0.352
2019-06-09-14:49:17.162814,0.646,-0.330,10.105,23.000,129.000,42.900,-0.734,2.945,0.625
2019-06-09-14:49:17.182345,0.648,-0.333,10.131,23.300,128.600,44.100,-0.594,2.773,0.648
2019-06-09-14:49:17.201717,0.672,-0.309,10.134,22.900,128.600,44.300,-0.703,2.961,0.508
2019-06-09-14:49:17.221150,0.675,-0.347,10.110,22.600,128.200,44.000,-0.750,2.898,0.328
2019-06-09-14:49:17.240603,0.656,-0.311,10.174,22.800,127.500,43.400,-0.500,3.031,0.328
2019-06-09-14:49:17.260032,0.656,-0.316,10.122,22.400,127.400,43.100,-0.906,3.133,0.508
2019-06-09-14:49:17.279558,0.656,-0.299,10.117,22.800,128.000,44.600,-0.484,2.734,0.328
2019-06-09-14:49:17.298929,0.668,-0.299,10.091,22.900,128.300,43.300,-0.352,2.750,0.148
2019-06-09-14:49:17.318453,0.644,-0.294,10.088,23.700,129.400,44.000,-0.695,3.141,0.414
2019-06-09-14:49:17.337910,0.636,-0.301,10.110,22.800,128.400,43.800,-0.680,2.789,0.312
2019-06-09-14:49:17.357253,0.653,-0.292,10.045,22.200,128.000,43.600,-0.758,2.883,0.391
2019-06-09-14:49:17.376664,0.660,-0.261,10.074,22.700,128.100,43.700,-0.656,2.984,0.414
2019-06-09-14:49:17.396105,0.656,-0.275,10.047,22.600,127.100,43.600,-0.547,2.789,0.578
2019-06-09-14:49:17.415470,0.672,-0.282,10.086,22.800,127.900,44.500,-0.727,2.602,0.492
2019-06-09-14:49:17.435107,0.665,-0.292,10.112,23.200,128.000,43.700,-0.180,2.734,0.367
2019-06-09-14:49:17.454563,0.677,-0.287,10.062,22.200,127.000,43.400,-0.906,2.969,0.375
2019-06-09-14:49:17.474037,0.663,-0.287,10.131,22.300,129.300,44.700,-0.703,2.898,0.156
2019-06-09-14:49:17.493487,0.675,-0.280,10.064,22.900,128.800,43.600,-0.883,2.984,0.727
2019-06-09-14:49:17.512868,0.658,-0.311,10.124,21.700,129.800,42.300,-0.641,2.883,0.328
2019-06-09-14:49:17.532307,0.656,-0.337,10.117,21.900,129.500,44.100,-0.898,2.922,0.219
2019-06-09-14:49:17.552468,0.648,-0.306,10.095,22.800,129.200,43.800,-0.680,2.812,0.352
2019-06-09-14:49:17.572108,0.670,-0.297,10.091,22.200,129.000,44.300,-0.398,2.961,0.375
2019-06-09-14:49:17.591710,0.658,-0.299,10.107,23.200,129.400,44.600,-0.633,2.906,0.375
2019-06-09-14:49:17.611157,0.658,-0.313,10.160,22.400,129.200,43.600,-0.953,2.758,0.445
2019-06-09-14:49:17.630594,0.632,-0.330,10.150,23.000,128.700,45.200,-0.859,3.008,0.523
2019-06-09-14:49:17.649972,0.651,-0.318,10.153,22.900,129.300,42.900,-0.547,3.094,0.328
2019-06-09-14:49:17.669455,0.639,-0.297,10.134,23.300,129.400,44.100,-0.680,2.812,0.438
2019-06-09-14:49:17.688900,0.660,-0.318,10.134,22.900,129.200,44.500,-0.750,2.898,0.523
2019-06-09-14:49:17.708271,0.680,-0.311,10.119,23.100,128.600,43.700,-0.977,2.883,0.336
2019-06-09-14:49:17.727757,0.656,-0.268,10.057,22.700,129.700,43.900,-0.438,2.930,0.414
2019-06-09-14:49:17.747261,0.663,-0.268,10.062,22.600,129.200,44.600,-0.828,2.906,0.391
2019-06-09-14:49:17.766654,0.670,-0.278,10.074,22.300,129.100,43.600,-0.633,2.969,0.367
2019-06-09-14:49:17.786150,0.625,-0.280,10.052,22.100,128.300,43.400,-0.781,3.008,0.461
2019-06-09-14:49:17.805534,0.641,-0.266,10.045,23.400,129.400,44.300,-0.688,2.750,0.523
2019-06-09-14:49:17.824883,0.648,-0.266,10.038,23.600,129.600,42.400,-0.703,2.812,0.305
2019-06-09-14:49:17.846310,0.641,-0.263,10.055,23.700,128.000,43.400,-0.836,2.859,0.352
2019-06-09-14:49:17.865901,0.653,-0.275,10.059,23.900,128.300,44.000,-0.422,2.750,0.258
2019-06-09-14:49:17.885348,0.641,-0.270,10.007,23.200,129.000,43.400,-0.516,2.625,0.594
2019-06-09-14:49:17.904731,0.663,-0.249,10.074,22.800,129.100,42.700,-0.594,2.859,0.242
2019-06-09-14:49:17.924180,0.660,-0.266,10.062,23.100,128.800,44.900,-0.875,2.875,0.414
2019-06-09-14:49:17.950082,0.639,-0.292,10.067,22.200,128.400,43.400,-0.953,3.156,0.641
2019-06-09-14:49:17.969644,0.651,-0.304,10.050,22.600,128.200,43.800,-0.250,2.992,0.414
2019-06-09-14:49:17.989138,0.627,-0.304,10.110,22.300,129.200,44.900,-1.062,3.047,0.312
2019-06-09-14:49:18.008532,0.663,-0.304,10.100,22.200,130.200,43.900,-0.570,2.844,0.289
2019-06-09-14:49:18.027884,0.663,-0.294,10.095,21.600,128.900,44.700,-0.750,2.875,0.391
2019-06-09-14:49:18.047230,0.658,-0.299,10.074,22.200,129.400,43.500,-0.320,2.844,0.469
2019-06-09-14:49:18.066646,0.663,-0.282,10.124,22.700,128.800,43.500,-0.562,2.758,0.484
2019-06-09-14:49:18.086182,0.660,-0.306,10.076,22.400,128.400,43.600,-0.422,2.969,0.367
2019-06-09-14:49:18.105582,0.641,-0.306,10.107,22.100,128.500,43.800,-0.586,2.820,0.367
2019-06-09-14:49:18.124943,0.663,-0.309,10.138,22.500,129.800,44.800,-0.617,2.930,0.148
2019-06-09-14:49:18.144364,0.677,-0.313,10.088,22.800,129.200,44.200,-0.461,2.961,0.375
2019-06-09-14:49:18.163712,0.651,-0.301,10.102,22.700,128.400,44.500,-0.039,2.812,0.406
2019-06-09-14:49:18.183051,0.677,-0.323,10.117,23.500,127.700,42.700,-0.836,2.664,0.289
2019-06-09-14:49:18.202448,0.668,-0.318,10.117,22.100,128.600,43.200,-0.906,2.711,0.445
2019-06-09-14:49:18.221784,0.677,-0.318,10.138,22.100,128.800,44.300,-0.305,2.906,0.445
2019-06-09-14:49:18.241398,0.651,-0.309,10.143,23.200,128.400,43.900,-0.711,2.820,0.547
2019-06-09-14:49:18.260857,0.665,-0.299,10.119,23.800,128.000,43.800,-0.688,2.836,0.258
2019-06-09-14:49:18.280238,0.668,-0.328,10.134,23.000,128.600,43.700,-0.922,2.734,0.438
2019-06-09-14:49:18.299739,0.663,-0.323,10.134,22.400,127.900,43.600,-0.641,2.984,0.438
2019-06-09-14:49:18.319112,0.670,-0.309,10.155,23.600,127.200,43.100,-0.414,2.758,0.352
2019-06-09-14:49:18.338454,0.658,-0.340,10.122,23.500,128.200,44.500,-0.336,3.078,0.492
2019-06-09-14:49:18.358240,0.646,-0.316,10.153,23.800,128.400,44.400,-0.750,2.922,0.664
2019-06-09-14:49:18.377784,0.668,-0.330,10.129,23.100,127.900,44.100,-0.305,2.703,0.289
2019-06-09-14:49:18.397212,0.653,-0.301,10.105,23.000,128.500,44.200,-0.594,2.734,0.391
2019-06-09-14:49:18.416571,0.632,-0.261,10.153,23.000,128.900,44.300,-0.984,3.047,0.305
2019-06-09-14:49:18.435995,0.660,-0.268,10.043,22.100,128.300,43.600,-0.555,3.047,0.289
2019-06-09-14:49:18.455354,0.658,-0.299,10.088,22.800,129.300,44.200,-0.586,2.898,0.219
2019-06-09-14:49:18.474689,0.632,-0.275,10.052,23.400,128.600,42.500,-0.773,2.703,0.391
2019-06-09-14:49:18.494149,0.787,-0.287,10.141,-4.400,-10.300,56.700,-0.820,2.992,0.156
2019-06-09-14:49:18.513587,0.656,-0.278,10.047,23.100,94.300,214.900,-0.242,2.883,0.289
2019-06-09-14:49:18.532946,0.656,-0.285,10.064,-2.100,15.200,117.100,-0.594,3.055,0.461
2019-06-09-14:49:18.552367,0.625,-0.258,10.069,11.700,49.000,158.400,-0.891,3.008,0.312
2019-06-09-14:49:18.571742,0.651,-0.273,10.098,17.100,65.400,192.500,-0.641,3.117,0.438
2019-06-09-14:49:18.591251,0.677,-0.297,10.074,15.800,63.700,204.000,-0.867,3.102,0.547
2019-06-09-14:49:18.610657,0.708,-0.275,10.076,11.000,48.800,109.700,-0.328,2.734,0.336
2019-06-09-14:49:18.630029,0.668,-0.278,10.083,15.300,92.600,117.200,-0.656,2.969,0.578
2019-06-09-14:49:18.649465,0.653,-0.290,10.093,14.300,79.900,98.300,-0.812,2.906,0.336
2019-06-09-14:49:18.668879,0.668,-0.282,10.067,15.400,79.200,95.700,-0.883,2.773,0.672
2019-06-09-14:49:18.688249,0.658,-0.306,10.100,21.300,102.100,103.000,-0.664,2.984,0.328
2019-06-09-14:49:18.707749,0.672,-0.301,10.069,20.900,94.300,86.600,-0.734,2.875,0.109
2019-06-09-14:49:18.727272,0.632,-0.325,10.107,26.300,91.800,17.300,-0.375,2.773,0.469
2019-06-09-14:49:18.747005,0.663,-0.309,10.138,28.600,134.700,144.900,-0.172,2.797,0.617
2019-06-09-14:49:18.766403,0.636,-0.278,10.100,17.300,60.300,15.900,-0.422,2.734,0.461
2019-06-09-14:49:18.785849,0.639,-0.266,10.076,2.800,39.300,107.100,-1.000,2.945,0.336
2019-06-09-14:49:18.805210,0.658,-0.258,10.026,8.500,48.700,64.500,-0.789,2.883,0.336
2019-06-09-14:49:18.824627,0.653,-0.282,10.076,34.100,131.400,91.300,-0.633,2.789,0.336
2019-06-09-14:49:18.844059,0.622,-0.256,10.035,11.200,70.300,116.600,-0.680,2.883,0.414
2019-06-09-14:49:18.863400,0.656,-0.251,10.050,14.000,74.300,99.500,-0.633,2.922,0.211
2019-06-09-14:49:18.882761,0.648,-0.261,10.050,15.800,74.500,93.200,-0.953,2.602,0.234
2019-06-09-14:49:18.902104,0.610,-0.273,10.016,14.400,76.200,84.800,-0.320,2.984,0.438
2019-06-09-14:49:18.921588,0.644,-0.256,10.067,16.700,74.800,77.900,-0.664,2.789,0.492
2019-06-09-14:49:18.940945,0.675,-0.268,10.040,16.100,93.000,133.200,-0.594,2.625,0.156
2019-06-09-14:49:18.960282,0.646,-0.270,10.021,15.600,85.200,132.300,-0.914,3.055,0.758
2019-06-09-14:49:18.979624,0.641,-0.251,10.040,5.200,71.600,153.400,-0.594,3.008,0.391
2019-06-09-14:49:18.999049,0.658,-0.258,10.067,4.800,64.400,142.100,-0.195,2.945,0.461
2019-06-09-14:49:19.018490,0.644,-0.275,10.059,9.800,67.900,119.800,-1.312,2.711,0.414
2019-06-09-14:49:19.037873,0.634,-0.270,10.074,19.700,129.100,216.300,-0.898,2.789,0.555
2019-06-09-14:49:19.057243,0.670,-0.268,10.081,11.500,112.100,224.300,-1.070,2.648,0.367
2019-06-09-14:49:19.076628,0.677,-0.278,10.076,27.800,145.700,203.700,-1.047,2.758,0.625
2019-06-09-14:49:19.096070,0.632,-0.316,10.024,7.800,48.200,91.400,-0.484,2.898,0.570
2019-06-09-14:49:19.115432,0.663,-0.328,10.098,14.300,97.300,178.800,-0.594,2.883,0.211
2019-06-09-14:49:19.134867,0.692,-0.321,10.093,2.900,46.200,117.900,-0.344,2.688,0.469
2019-06-09-14:49:19.156292,0.627,-0.318,10.069,15.000,74.400,113.500,-0.734,2.992,0.305
2019-06-09-14:49:19.175849,0.692,-0.321,10.129,16.900,84.000,139.500,-0.516,3.242,0.406
2019-06-09-14:49:19.195216,0.668,-0.280,10.095,27.300,101.700,127.200,-0.570,2.820,0.445
2019-06-09-14:49:19.214557,0.658,-0.306,10.091,14.500,62.100,114.200,-0.734,2.875,0.305
2019-06-09-14:49:19.234121,0.651,-0.313,10.088,11.100,57.400,93.300,-0.594,3.188,0.531
2019-06-09-14:49:19.253588,0.658,-0.297,10.093,6.700,51.500,124.100,-0.906,2.727,0.266
2019-06-09-14:49:19.272991,0.629,-0.287,10.055,7.300,77.900,160.700,-0.680,2.859,0.594
2019-06-09-14:49:19.292435,0.641,-0.282,10.031,5.600,65.600,150.200,-0.539,2.812,0.531
2019-06-09-14:49:19.311808,0.629,-0.280,10.112,12.000,62.000,144.600,-0.805,2.773,0.266
2019-06-09-14:49:19.333266,0.651,-0.290,10.031,23.600,103.200,145.500,-0.414,2.797,0.398
2019-06-09-14:49:19.352750,0.625,-0.268,9.997,20.600,93.200,136.300,-0.328,2.812,0.312
2019-06-09-14:49:19.372133,0.641,-0.292,10.095,24.100,86.100,121.000,-0.773,2.812,0.438
2019-06-09-14:49:19.391597,0.672,-0.297,10.074,24.800,98.800,151.500,-0.688,3.008,0.258
2019-06-09-14:49:19.410950,0.641,-0.266,10.040,24.500,99.700,153.500,-0.680,2.812,0.375
2019-06-09-14:49:19.430338,0.656,-0.278,10.055,12.300,20.900,55.900,-0.547,3.078,0.484
2019-06-09-14:49:19.449701,0.613,-0.270,10.052,6.900,88.000,212.800,-0.375,2.984,0.492
2019-06-09-14:49:19.469044,0.632,-0.256,10.016,27.000,61.300,67.200,-0.469,2.930,0.367
2019-06-09-14:49:19.488468,0.660,-0.254,10.000,-1.500,54.300,173.900,-0.492,2.875,0.703
2019-06-09-14:49:19.507876,0.608,-0.254,10.067,-4.100,36.000,144.100,-0.648,3.211,0.469
2019-06-09-14:49:19.527232,0.653,-0.256,10.002,24.900,110.000,188.200,-0.031,2.750,0.445
2019-06-09-14:49:19.552467,0.665,-0.263,10.059,24.300,87.000,128.400,-0.469,2.758,0.531
2019-06-09-14:49:19.571980,0.625,-0.278,10.074,39.200,134.500,159.700,-0.617,3.102,0.523
2019-06-09-14:49:19.591528,0.663,-0.304,10.052,-5.000,61.700,234.500,-0.570,2.922,0.438
2019-06-09-14:49:19.610871,0.668,-0.278,10.050,-14.200,7.700,130.900,-0.836,2.844,0.375
2019-06-09-14:49:19.630237,0.651,-0.246,10.026,14.800,27.500,61.700,-0.320,2.922,0.625
2019-06-09-14:49:19.649665,0.634,-0.266,10.016,4.000,70.200,205.800,-0.594,2.711,0.531
2019-06-09-14:49:19.669020,0.636,-0.287,10.031,7.900,79.400,212.600,-0.508,2.836,0.414
2019-06-09-14:49:19.688372,0.677,-0.261,10.050,0.300,41.200,163.500,-0.703,2.844,0.617
2019-06-09-14:49:19.707890,0.660,-0.292,10.052,12.400,91.200,216.300,-0.766,3.031,0.352
2019-06-09-14:49:19.727296,0.648,-0.275,10.076,6.700,29.300,111.500,-0.820,3.133,0.531
2019-06-09-14:49:19.746853,0.629,-0.280,10.064,20.100,92.700,182.500,-0.008,2.922,0.430
2019-06-09-14:49:19.766290,0.663,-0.275,10.047,4.200,55.500,169.900,-0.320,2.758,0.414
2019-06-09-14:49:19.785655,0.663,-0.280,10.057,8.200,27.500,103.700,-0.641,2.969,0.664
2019-06-09-14:49:19.805013,0.692,-0.342,10.100,2.700,28.400,120.500,-0.898,2.945,0.641
2019-06-09-14:49:19.824361,0.629,-0.309,10.102,13.100,90.200,203.300,-1.031,2.773,0.438
2019-06-09-14:49:19.843766,0.639,-0.297,10.071,11.700,41.500,116.000,-0.594,2.930,0.414
2019-06-09-14:49:19.863114,0.668,-0.268,10.052,19.300,84.000,183.300,-0.438,2.945,0.625
2019-06-09-14:49:19.882491,0.641,-0.290,10.100,7.700,71.200,184.000,-0.398,2.945,0.617
2019-06-09-14:49:19.901827,0.608,-0.285,10.055,23.500,67.800,137.000,-0.617,3.055,0.234
2019-06-09-14:49:19.921259,0.651,-0.309,10.067,0.900,37.700,124.100,-0.727,2.945,0.469
2019-06-09-14:49:19.940596,0.684,-0.311,10.100,7.400,35.800,105.300,-0.711,2.922,0.531
2019-06-09-14:49:19.959994,0.636,-0.275,10.055,8.900,59.100,148.900,-0.930,2.883,0.219
2019-06-09-14:49:19.979431,0.641,-0.270,10.016,9.100,69.900,157.300,-0.734,3.055,0.336
2019-06-09-14:49:19.998876,0.629,-0.273,10.076,10.000,60.200,134.800,-0.617,2.758,0.641
2019-06-09-14:49:20.018271,0.651,-0.285,10.064,11.300,57.800,145.000,-0.672,2.961,0.594
2019-06-09-14:49:20.037719,0.617,-0.263,10.028,10.300,58.900,149.500,-0.516,3.016,0.531
2019-06-09-14:49:20.057151,0.665,-0.263,10.024,-3.400,33.700,130.800,-0.438,2.797,0.188
2019-06-09-14:49:20.076601,0.646,-0.246,10.045,22.600,58.100,118.900,-0.328,3.016,0.531
2019-06-09-14:49:20.096046,0.636,-0.239,10.059,2.900,21.500,97.200,-0.398,2.664,0.336
2019-06-09-14:49:20.115395,0.632,-0.273,9.992,3.700,75.300,196.000,-0.422,2.844,0.445
2019-06-09-14:49:20.134750,0.682,-0.290,10.033,10.700,32.400,85.600,-0.305,2.922,0.555
2019-06-09-14:49:20.154224,0.653,-0.304,10.141,-3.600,49.500,158.800,-0.367,2.898,0.195
2019-06-09-14:49:20.173592,0.632,-0.335,10.110,5.300,81.800,201.800,-0.727,2.727,0.328
2019-06-09-14:49:20.192930,0.644,-0.287,10.062,20.800,50.400,102.800,-0.445,2.883,0.391
2019-06-09-14:49:20.212336,0.663,-0.311,10.110,9.200,95.900,214.600,-0.344,2.906,0.391
2019-06-09-14:49:20.231874,0.620,-0.309,10.076,3.400,8.400,69.300,-0.602,3.047,0.281
2019-06-09-14:49:20.251310,0.639,-0.335,10.177,21.300,87.000,171.200,-0.695,2.992,0.492
2019-06-09-14:49:20.270766,0.629,-0.309,10.093,31.300,102.600,202.200,-0.734,2.859,0.438
2019-06-09-14:49:20.290139,0.668,-0.304,10.093,33.400,86.000,169.600,-0.578,3.031,0.422
2019-06-09-14:49:20.309572,0.656,-0.318,10.098,34.000,87.000,168.000,-0.344,2.945,0.422
2019-06-09-14:49:20.328925,0.617,-0.304,10.114,4.900,73.400,215.600,-0.539,2.961,0.555
2019-06-09-14:49:20.353850,0.656,-0.318,10.107,22.800,42.200,90.600,-1.016,2.906,0.422
2019-06-09-14:49:20.373355,0.663,-0.309,10.124,23.700,114.500,208.100,-0.836,2.930,0.703
2019-06-09-14:49:20.392736,0.653,-0.325,10.071,0.600,69.300,195.900,-0.883,2.969,0.594
2019-06-09-14:49:20.412076,0.641,-0.287,10.074,17.800,68.100,148.900,-0.445,3.008,0.398
2019-06-09-14:49:20.431513,0.668,-0.294,10.064,13.500,76.700,182.700,-0.344,2.883,0.578
2019-06-09-14:49:20.450854,0.682,-0.294,10.057,8.800,71.500,182.100,-0.367,2.906,0.664
2019-06-09-14:49:20.470252,0.644,-0.309,10.045,19.200,59.000,145.500,-0.750,2.773,0.555
2019-06-09-14:49:20.489652,0.636,-0.266,10.088,18.600,72.200,173.300,-0.469,2.758,0.625
2019-06-09-14:49:20.509021,0.653,-0.280,10.102,19.700,69.900,162.000,-0.695,3.141,0.445
2019-06-09-14:49:20.528365,0.639,-0.325,10.012,12.100,40.500,124.500,-0.273,2.961,0.414
2019-06-09-14:49:20.547792,0.625,-0.270,10.057,18.600,60.800,149.000,-0.703,2.820,0.461
2019-06-09-14:49:20.567201,0.644,-0.268,10.021,10.000,58.100,166.900,-0.305,3.164,0.281
2019-06-09-14:49:20.586772,0.682,-0.278,10.033,19.300,36.500,108.600,-0.461,2.648,0.266
2019-06-09-14:49:20.606196,0.627,-0.311,10.095,7.600,71.800,191.100,-0.711,2.859,0.703
2019-06-09-14:49:20.625596,0.665,-0.309,10.117,18.400,37.600,109.500,-0.680,2.789,0.508
2019-06-09-14:49:20.644975,0.646,-0.268,10.052,25.500,69.000,156.800,-0.109,2.844,0.523
2019-06-09-14:49:20.664393,0.665,-0.335,10.105,11.600,21.100,103.600,-0.492,2.625,0.438
2019-06-09-14:49:20.683782,0.663,-0.325,10.110,26.000,69.800,156.500,-0.391,2.969,0.445
2019-06-09-14:49:20.703134,0.663,-0.347,10.076,4.800,25.700,124.300,-0.586,2.945,0.305
2019-06-09-14:49:20.722534,0.668,-0.318,10.105,21.600,47.800,116.400,-0.680,2.930,0.492
2019-06-09-14:49:20.742110,0.648,-0.292,10.098,-6.300,25.800,144.000,-0.461,2.898,0.352
2019-06-09-14:49:20.762052,0.646,-0.316,10.162,10.000,97.300,256.100,-0.672,2.992,0.625
2019-06-09-14:49:20.781707,0.703,-0.333,10.119,31.300,37.300,83.600,-0.375,2.875,0.336
2019-06-09-14:49:20.801183,0.665,-0.294,10.117,21.500,41.100,107.800,-0.859,2.930,0.555
2019-06-09-14:49:20.820560,0.663,-0.366,10.124,35.000,90.000,157.300,-0.422,3.273,0.383
2019-06-09-14:49:20.842109,0.656,-0.321,10.131,-11.900,25.200,159.400,-0.812,2.875,0.445
2019-06-09-14:49:20.861636,0.651,-0.306,10.086,22.200,43.300,112.300,-0.734,2.820,0.570
2019-06-09-14:49:20.881124,0.629,-0.304,10.081,33.600,102.700,196.400,-0.352,2.844,0.414
2019-06-09-14:49:20.900499,0.648,-0.318,10.165,18.600,118.900,275.300,-0.562,2.961,0.508
2019-06-09-14:49:20.919849,0.656,-0.309,10.114,8.500,-2.000,40.400,-0.711,2.859,0.414
2019-06-09-14:49:20.939170,0.646,-0.311,10.083,41.500,83.700,131.600,-0.141,3.227,0.734
2019-06-09-14:49:20.958490,0.613,-0.306,10.129,-7.300,-27.100,24.100,-0.344,2.898,0.281
2019-06-09-14:49:20.977966,0.651,-0.311,10.086,-16.000,56.900,225.000,-0.430,3.102,0.484
2019-06-09-14:49:20.997407,0.651,-0.335,10.107,-10.600,-25.800,32.000,-0.516,2.898,0.367
2019-06-09-14:49:21.016795,0.629,-0.299,10.074,23.300,147.900,292.000,-0.281,3.008,0.445
2019-06-09-14:49:21.036171,0.625,-0.278,10.021,-18.500,-19.600,65.700,-0.484,2.922,0.648
2019-06-09-14:49:21.055515,0.656,-0.337,10.079,-21.000,-12.400,90.300,-0.516,2.875,0.617
2019-06-09-14:49:21.074925,0.670,-0.263,10.105,25.100,7.400,33.100,-0.375,2.930,0.484
2019-06-09-14:49:21.094511,0.656,-0.323,10.033,30.000,150.300,278.400,-0.906,3.211,0.555
2019-06-09-14:49:21.114034,0.651,-0.287,10.079,38.200,148.400,254.500,-0.469,2.789,0.336
2019-06-09-14:49:21.133431,0.701,-0.318,10.021,41.100,140.600,236.700,-0.469,2.961,0.445
2019-06-09-14:49:21.152833,0.620,-0.282,10.055,36.100,156.300,277.400,-0.602,3.055,0.328
2019-06-09-14:49:21.172300,0.622,-0.282,10.081,-23.900,-23.500,72.400,-0.594,2.789,0.391
2019-06-09-14:49:21.191758,0.601,-0.258,10.098,-9.800,-40.300,8.000,-0.461,2.773,0.484
2019-06-09-14:49:21.211222,0.639,-0.292,10.124,-21.400,-36.800,36.600,-0.438,2.750,0.289
2019-06-09-14:49:21.230648,0.696,-0.297,10.105,-17.400,68.200,242.600,-0.594,2.789,0.594
2019-06-09-14:49:21.250091,0.653,-0.328,10.117,-18.000,69.600,241.400,-0.672,2.992,0.289
2019-06-09-14:49:21.269579,0.706,-0.342,10.148,48.900,108.200,185.900,-0.836,2.969,0.828
2019-06-09-14:49:21.289003,0.644,-0.330,10.091,21.200,146.200,324.900,-0.727,2.930,0.523
2019-06-09-14:49:21.308369,0.663,-0.325,10.091,25.900,146.900,312.100,-0.305,2.898,0.492
2019-06-09-14:49:21.327810,0.634,-0.301,10.040,26.200,142.900,306.300,-0.367,2.961,0.148
2019-06-09-14:49:21.347177,0.670,-0.309,10.148,43.500,77.400,129.400,-0.812,2.844,0.641
2019-06-09-14:49:21.366521,0.684,-0.273,10.134,16.100,-26.000,8.200,-0.633,2.812,0.281
2019-06-09-14:49:21.386011,0.696,-0.292,10.102,38.900,137.700,262.300,-0.922,2.906,0.648
2019-06-09-14:49:21.405392,0.656,-0.342,10.079,-19.500,-1.400,118.900,-0.625,3.055,0.484
2019-06-09-14:49:21.424746,0.625,-0.366,10.172,-18.300,19.000,158.100,-0.836,3.188,0.398
2019-06-09-14:49:21.444178,0.680,-0.304,10.040,16.600,-25.000,9.200,-0.539,2.859,0.578
2019-06-09-14:49:21.463526,0.641,-0.285,10.093,-12.200,-26.800,46.100,-0.641,2.617,0.414
2019-06-09-14:49:21.482868,0.629,-0.278,10.043,-6.100,-35.700,24.000,-0.406,3.008,0.492
2019-06-09-14:49:21.502400,0.627,-0.242,10.024,5.200,-35.600,8.900,-0.664,2.703,0.305
2019-06-09-14:49:21.521772,0.632,-0.278,10.014,44.500,110.400,185.600,-0.688,2.844,0.438
2019-06-09-14:49:21.541200,0.672,-0.292,10.047,-17.600,-12.600,89.300,-0.680,2.906,0.398
2019-06-09-14:49:21.561953,0.651,-0.275,10.059,-14.300,-20.700,65.800,-0.633,2.961,0.594
2019-06-09-14:49:21.581686,0.656,-0.287,10.059,-5.600,-43.000,6.100,-0.594,2.797,0.523
2019-06-09-14:49:21.601276,0.663,-0.301,10.100,-17.300,25.300,184.400,-0.289,2.859,0.438
2019-06-09-14:49:21.620695,0.625,-0.239,10.064,11.600,121.000,295.600,-0.688,2.773,0.367
2019-06-09-14:49:21.640064,0.675,-0.313,10.129,6.200,-12.900,42.300,-0.375,3.156,0.148
2019-06-09-14:49:21.659516,0.610,-0.261,10.124,3.600,106.400,289.300,-0.633,2.961,0.281
2019-06-09-14:49:21.678901,0.622,-0.237,9.976,12.600,-15.800,11.400,-0.594,3.008,0.469
2019-06-09-14:49:21.698328,0.684,-0.282,10.026,28.900,12.800,32.800,-0.703,2.875,0.391
2019-06-09-14:49:21.717790,0.646,-0.285,10.076,17.100,-17.100,6.600,-0.531,2.969,0.438
2019-06-09-14:49:21.737660,0.651,-0.294,10.074,43.700,131.800,217.500,-0.594,2.703,0.258
2019-06-09-14:49:21.757145,0.689,-0.278,10.045,37.200,43.900,69.300,-0.492,2.617,0.594
2019-06-09-14:49:21.776561,0.641,-0.352,10.172,32.700,154.400,289.800,-0.492,2.898,0.438
2019-06-09-14:49:21.796086,0.644,-0.311,10.095,21.400,-7.200,13.300,-1.055,2.922,0.508
2019-06-09-14:49:21.815481,0.668,-0.335,10.069,40.700,61.400,94.300,-0.781,2.898,0.234
2019-06-09-14:49:21.834840,0.699,-0.330,10.138,-15.500,-33.500,29.300,-0.867,3.078,0.328
2019-06-09-14:49:21.854325,0.636,-0.321,10.126,-10.500,83.800,272.200,-0.406,3.133,0.414
2019-06-09-14:49:21.873722,0.701,-0.285,10.114,14.200,-22.700,5.600,-0.570,2.859,0.312
2019-06-09-14:49:21.893159,0.648,-0.294,10.079,27.900,14.700,36.400,-0.461,2.969,0.328
2019-06-09-14:49:21.912565,0.617,-0.261,10.043,9.500,135.500,317.100,-0.758,2.789,0.445
2019-06-09-14:49:21.931910,0.617,-0.225,10.004,36.100,43.300,71.200,-0.930,3.070,0.523
2019-06-09-14:49:21.957791,0.644,-0.249,10.059,27.000,10.100,33.300,0.203,2.898,0.383
2019-06-09-14:49:21.977291,0.639,-0.323,10.107,-23.700,-6.600,93.600,-0.602,3.047,0.438
2019-06-09-14:49:21.996749,0.680,-0.292,10.119,-14.200,-31.500,33.700,-1.117,2.688,0.398
2019-06-09-14:49:22.016186,0.692,-0.316,10.100,31.000,23.000,45.200,-0.617,3.008,0.289
2019-06-09-14:49:22.035556,0.675,-0.340,10.119,12.300,-27.000,4.600,-0.609,2.906,0.445
2019-06-09-14:49:22.054919,0.653,-0.328,10.043,-18.200,-22.000,49.200,-1.055,2.711,0.281
2019-06-09-14:49:22.074325,0.663,-0.318,10.122,42.600,100.100,159.000,-0.547,3.008,0.641
2019-06-09-14:49:22.093689,0.703,-0.349,10.165,-22.200,-17.800,70.600,-0.680,2.820,0.281
2019-06-09-14:49:22.113083,0.634,-0.225,10.055,43.000,114.200,186.500,-0.273,2.875,0.289
2019-06-09-14:49:22.132472,0.668,-0.254,10.004,22.900,150.600,307.300,-1.094,2.664,0.438
2019-06-09-14:49:22.151823,0.653,-0.249,9.978,-26.900,13.500,142.500,-0.445,2.930,0.641
2019-06-09-14:49:22.171269,0.641,-0.256,10.081,22.400,-2.100,21.300,-0.594,2.734,0.398
2019-06-09-14:49:22.190629,0.670,-0.230,10.038,28.800,151.000,289.700,-0.789,2.797,0.391
2019-06-09-14:49:22.210029,0.708,-0.290,10.093,42.300,81.900,127.600,-0.578,3.031,0.414
2019-06-09-14:49:22.229506,0.653,-0.294,10.012,15.300,-36.700,-20.300,-0.727,2.898,0.797
2019-06-09-14:49:22.248978,0.648,-0.256,10.076,-1.700,92.600,288.100,-0.805,2.750,0.305
2019-06-09-14:49:22.268348,0.651,-0.290,10.047,0.700,-48.000,2.500,-0.453,3.031,0.484
2019-06-09-14:49:22.287783,0.675,-0.306,10.100,46.300,102.600,176.400,-0.766,3.141,0.648
2019-06-09-14:49:22.307323,0.648,-0.299,10.150,35.700,147.600,292.100,-0.742,3.055,0.398
2019-06-09-14:49:22.328666,0.675,-0.330,10.122,-4.000,80.200,273.200,-0.422,2.898,0.570
2019-06-09-14:49:22.348163,0.668,-0.285,10.071,32.300,141.100,283.400,-0.445,2.930,0.469
2019-06-09-14:49:22.367645,0.658,-0.297,10.093,11.800,126.400,315.000,-0.344,2.812,0.445
2019-06-09-14:49:22.387018,0.696,-0.256,10.083,45.100,121.000,216.700,-0.781,2.727,0.398
2019-06-09-14:49:22.406368,0.629,-0.290,10.012,-9.500,60.200,247.200,-0.422,2.820,0.375
2019-06-09-14:49:22.427486,0.625,-0.287,10.028,5.200,108.500,304.400,-0.289,2.859,0.367
2019-06-09-14:49:22.446947,0.627,-0.278,10.091,19.300,134.600,304.000,-0.727,2.969,0.508
2019-06-09-14:49:22.466375,0.658,-0.340,10.193,45.500,115.100,203.600,-0.516,2.664,0.398
2019-06-09-14:49:22.485864,0.653,-0.318,10.062,45.800,97.900,168.700,-0.516,2.945,0.438
2019-06-09-14:49:22.505279,0.668,-0.285,10.088,6.700,-37.100,14.500,-0.562,2.812,0.711
2019-06-09-14:49:22.524729,0.665,-0.357,10.160,44.400,111.300,194.400,-0.906,2.711,0.578
2019-06-09-14:49:22.544190,0.634,-0.292,10.107,30.700,3.800,40.400,-0.133,3.094,0.461
2019-06-09-14:49:22.563559,0.672,-0.357,10.126,-9.300,-30.400,39.800,-0.727,2.945,0.523
2019-06-09-14:49:22.582971,0.656,-0.263,10.141,42.700,123.100,219.600,-0.539,3.078,0.172
2019-06-09-14:49:22.602432,0.593,-0.290,10.045,-18.600,-11.300,99.300,-0.656,2.984,0.461
2019-06-09-14:49:22.621871,0.665,-0.254,10.059,43.600,115.600,210.200,-0.828,2.711,0.625
2019-06-09-14:49:22.641323,0.696,-0.290,10.055,39.500,100.200,197.800,-0.781,2.898,0.523
2019-06-09-14:49:22.660688,0.625,-0.249,9.985,-18.300,-2.100,122.900,-0.508,2.773,0.211
2019-06-09-14:49:22.680052,0.625,-0.246,10.007,21.000,-18.100,18.200,-0.609,2.648,0.188
2019-06-09-14:49:22.699508,0.668,-0.223,10.045,44.400,118.200,208.500,-0.492,2.836,0.211
2019-06-09-14:49:22.718917,0.680,-0.301,10.009,9.800,120.300,300.600,-0.883,2.922,0.578
2019-06-09-14:49:22.738426,0.627,-0.251,10.016,29.000,26.800,63.800,-0.781,2.898,0.648
2019-06-09-14:49:22.764356,0.627,-0.337,10.114,21.400,140.900,306.400,-0.492,2.969,0.672
2019-06-09-14:49:22.783843,0.694,-0.309,10.081,4.800,-36.700,4.700,-0.547,3.078,0.688
2019-06-09-14:49:22.803297,0.675,-0.309,10.112,45.800,90.300,152.700,-0.883,2.820,0.422
2019-06-09-14:49:22.822760,0.694,-0.323,10.043,23.800,141.000,307.300,-0.633,2.859,0.461
2019-06-09-14:49:22.842145,0.670,-0.309,10.112,16.600,134.400,310.900,-0.664,2.820,0.492
2019-06-09-14:49:22.861582,0.651,-0.321,10.122,32.200,147.100,293.500,-0.375,2.945,0.648
2019-06-09-14:49:22.880962,0.665,-0.294,10.062,4.800,87.700,252.100,-0.430,3.016,0.578
2019-06-09-14:49:22.900324,0.663,-0.368,10.129,-10.400,58.500,241.400,-0.609,2.906,0.352
2019-06-09-14:49:22.919710,0.660,-0.349,10.069,18.800,-29.300,2.400,-0.328,3.008,0.367
2019-06-09-14:49:22.939069,0.639,-0.311,10.052,35.500,51.400,113.700,-0.766,3.102,0.258
2019-06-09-14:49:22.958419,0.663,-0.306,10.026,28.800,-4.200,22.100,-0.656,2.969,0.398
2019-06-09-14:49:22.977860,0.663,-0.270,10.081,15.000,-22.700,3.700,-0.203,2.836,0.375
2019-06-09-14:49:22.997312,0.629,-0.306,10.062,16.500,-17.700,9.900,-0.781,2.773,0.547
2019-06-09-14:49:23.016704,0.653,-0.313,10.098,44.700,121.200,201.500,-0.523,3.016,0.281
2019-06-09-14:49:23.036154,0.656,-0.299,10.105,15.900,-21.600,4.600,-0.750,2.930,0.570
2019-06-09-14:49:23.055525,0.670,-0.299,10.086,-22.000,-16.000,74.200,-0.711,2.789,0.547
2019-06-09-14:49:23.074889,0.699,-0.323,10.047,29.000,9.200,34.300,-0.859,2.758,0.445
2019-06-09-14:49:23.094337,0.684,-0.325,10.112,16.300,148.000,312.300,-0.719,3.055,0.422
2019-06-09-14:49:23.113685,0.677,-0.357,10.153,-24.400,-7.100,97.500,-0.977,2.820,0.438
2019-06-09-14:49:23.133111,0.692,-0.349,10.134,43.700,120.700,196.400,-0.773,2.820,0.398
2019-06-09-14:49:23.158577,0.677,-0.292,10.071,16.700,-22.100,6.000,-0.547,3.211,0.469
2019-06-09-14:49:23.178120,0.629,-0.342,10.129,-6.000,103.400,292.600,-0.344,2.789,0.414
2019-06-09-14:49:23.197577,0.636,-0.345,10.062,21.300,151.700,305.900,-0.672,3.031,0.414
2019-06-09-14:49:23.216951,0.718,-0.323,10.146,43.800,127.800,213.700,-0.516,2.859,0.312
2019-06-09-14:49:23.236437,0.720,-0.287,10.158,37.400,45.300,77.300,-0.305,2.812,0.445
2019-06-09-14:49:23.255989,0.644,-0.335,10.098,30.600,18.400,42.200,-0.305,2.875,0.570
2019-06-09-14:49:23.275382,0.646,-0.333,10.091,-21.900,-18.400,66.600,-0.805,2.797,0.336
2019-06-09-14:49:23.294756,0.622,-0.309,10.102,37.100,44.800,76.100,-0.352,3.273,0.375
2019-06-09-14:49:23.314216,0.627,-0.280,10.129,36.200,42.300,72.900,-0.922,2.906,0.555
2019-06-09-14:49:23.333660,0.675,-0.325,10.098,41.700,80.300,122.700,-0.812,2.672,0.688
2019-06-09-14:49:23.353041,0.692,-0.263,10.153,43.400,93.700,145.400,-0.398,2.844,0.703
2019-06-09-14:49:23.372418,0.696,-0.311,10.119,34.800,32.600,60.900,-0.516,2.875,0.570
2019-06-09-14:49:23.391766,0.660,-0.258,10.002,6.500,-36.000,-1.800,-0.758,2.703,0.594
2019-06-09-14:49:23.411203,0.613,-0.311,9.985,-24.300,6.300,134.400,-0.234,3.117,0.523
2019-06-09-14:49:23.430607,0.651,-0.275,9.995,2.500,-37.700,3.300,-0.742,3.133,0.375
2019-06-09-14:49:23.449971,0.663,-0.309,10.071,-25.800,-6.500,103.200,-0.805,2.727,0.352
2019-06-09-14:49:23.469404,0.696,-0.359,10.091,18.700,-20.100,8.500,-0.758,2.797,0.492
2019-06-09-14:49:23.488787,0.644,-0.304,10.067,28.200,30.300,62.500,-0.641,3.031,0.508
2019-06-09-14:49:23.508161,0.680,-0.242,10.110,21.400,20.800,63.900,-0.227,2.969,0.469
2019-06-09-14:49:23.527603,0.663,-0.364,10.083,-19.500,-19.700,75.300,-0.219,2.859,0.555
2019-06-09-14:49:23.547026,0.682,-0.285,10.067,-20.900,8.900,149.100,-0.641,3.031,0.531
2019-06-09-14:49:23.566391,0.703,-0.261,10.026,33.000,8.900,36.300,-0.836,2.945,0.305
2019-06-09-14:49:23.585896,0.644,-0.304,10.126,26.400,-8.100,20.300,-0.758,2.859,0.664
2019-06-09-14:49:23.605281,0.692,-0.299,10.126,47.900,101.800,172.900,-0.352,2.969,0.414
2019-06-09-14:49:23.624655,0.625,-0.297,10.045,5.300,116.700,309.200,-0.656,2.648,0.336
2019-06-09-14:49:23.644207,0.639,-0.225,10.100,-19.100,11.500,150.500,-0.570,2.875,0.375
2019-06-09-14:49:23.663652,0.692,-0.328,10.169,41.300,46.100,83.500,-0.758,2.820,0.469
2019-06-09-14:49:23.683070,0.711,-0.349,10.095,27.000,147.400,305.600,-0.547,2.883,0.391
2019-06-09-14:49:23.702451,0.648,-0.364,10.126,-20.500,-4.900,118.100,-0.570,2.898,0.625
2019-06-09-14:49:23.721908,0.615,-0.266,10.179,1.100,109.000,302.400,-0.641,2.758,0.484
2019-06-09-14:49:23.741503,0.651,-0.290,9.935,-11.300,54.700,237.200,-0.391,2.922,0.469
2019-06-09-14:49:23.760993,0.620,-0.273,10.026,-17.000,14.000,151.900,-0.547,2.969,0.414
2019-06-09-14:49:23.780375,0.603,-0.275,10.014,12.200,25.300,111.300,-0.492,2.586,0.523
2019-06-09-14:49:23.799748,0.668,-0.275,10.045,6.800,71.100,217.600,-0.742,3.055,0.492
2019-06-09-14:49:23.819110,0.658,-0.301,10.067,-9.800,2.300,114.200,-0.406,3.016,0.492
2019-06-09-14:49:23.840497,0.622,-0.290,10.045,-15.500,39.700,208.100,-0.547,3.008,0.469
2019-06-09-14:49:23.859972,0.586,-0.311,10.002,6.100,-24.800,38.500,-0.516,2.773,0.328
2019-06-09-14:49:23.879447,0.651,-0.251,10.038,-1.500,99.600,290.200,-0.805,2.859,0.461
2019-06-09-14:49:23.898820,0.625,-0.292,9.983,-17.500,-33.800,47.500,-0.734,2.883,0.375
2019-06-09-14:49:23.918176,0.627,-0.280,10.076,8.200,107.500,284.300,-0.391,2.922,0.312
2019-06-09-14:49:23.937600,0.660,-0.254,10.014,-17.700,51.600,218.000,-0.641,3.016,0.578
2019-06-09-14:49:23.963536,0.651,-0.230,10.024,26.800,-8.900,18.500,-0.852,2.875,0.570
2019-06-09-14:49:23.983034,0.713,-0.325,10.114,-23.200,-7.600,108.700,-0.586,2.773,0.570
2019-06-09-14:49:24.002484,0.694,-0.368,10.059,29.100,-3.600,22.200,-1.016,2.875,0.664
2019-06-09-14:49:24.021859,0.627,-0.311,10.122,-22.800,-8.000,104.000,-0.727,2.797,0.375
2019-06-09-14:49:24.041333,0.610,-0.294,10.136,-22.000,-18.100,79.800,-0.516,2.844,0.367
2019-06-09-14:49:24.061965,0.646,-0.330,10.007,-6.600,-40.000,12.000,-0.516,3.188,0.375
2019-06-09-14:49:24.089561,0.596,-0.266,10.002,-10.400,-20.700,46.500,-0.469,3.102,0.555
2019-06-09-14:49:24.109607,0.641,-0.304,10.033,30.500,43.800,84.500,-0.906,2.789,0.422
2019-06-09-14:49:24.129105,0.668,-0.261,10.069,42.300,104.000,175.600,-0.547,2.836,0.367
2019-06-09-14:49:24.148546,0.660,-0.309,10.117,6.700,128.900,311.800,-1.000,3.016,0.305
2019-06-09-14:49:24.167967,0.687,-0.313,10.088,-13.900,31.100,156.400,-0.664,2.961,0.445
2019-06-09-14:49:24.187403,0.651,-0.316,10.093,28.200,53.500,117.200,-0.547,2.773,0.375
2019-06-09-14:49:24.206807,0.627,-0.299,10.081,-18.700,-1.600,115.400,-0.516,2.906,0.375
2019-06-09-14:49:24.226187,0.610,-0.266,10.074,9.900,125.500,310.400,-0.906,3.102,0.492
2019-06-09-14:49:24.245684,0.668,-0.268,10.047,25.300,31.700,85.700,-0.273,2.984,0.617
2019-06-09-14:49:24.265209,0.646,-0.285,10.069,13.700,-1.200,65.200,-0.367,2.758,0.438
2019-06-09-14:49:24.284593,0.682,-0.280,10.069,24.800,106.700,238.400,-0.609,2.758,0.672
2019-06-09-14:49:24.304046,0.610,-0.273,10.064,31.700,74.200,158.100,-0.398,2.992,0.305
2019-06-09-14:49:24.323432,0.656,-0.282,10.055,-1.300,46.200,186.500,-0.688,2.875,0.555
2019-06-09-14:49:24.342777,0.634,-0.280,10.035,1.800,62.500,215.300,-0.531,2.906,0.531
2019-06-09-14:49:24.368340,0.634,-0.268,10.016,31.200,80.200,163.100,-0.859,2.992,0.492
2019-06-09-14:49:24.387881,0.646,-0.275,10.040,4.900,78.600,225.500,-0.789,2.984,0.375
2019-06-09-14:49:24.407238,0.620,-0.263,10.074,15.200,98.500,231.400,-0.602,3.016,0.336
2019-06-09-14:49:24.426606,0.646,-0.275,9.968,4.300,72.100,232.200,-0.570,2.836,0.492
2019-06-09-14:49:24.446056,0.653,-0.251,10.045,13.600,97.200,251.400,-0.680,2.945,0.555
2019-06-09-14:49:24.465477,0.644,-0.273,10.014,8.500,11.100,88.600,-1.016,2.789,0.242
2019-06-09-14:49:24.484850,0.653,-0.270,10.043,22.400,86.700,201.400,-0.469,3.031,0.258
2019-06-09-14:49:24.504340,0.629,-0.239,10.033,15.700,80.400,210.600,-0.789,3.008,0.602
2019-06-09-14:49:24.523735,0.622,-0.285,10.035,8.900,63.300,209.100,-0.812,2.969,0.602
2019-06-09-14:49:24.543091,0.672,-0.290,10.026,24.600,69.100,171.000,-0.227,2.836,0.445
2019-06-09-14:49:24.562503,0.663,-0.325,10.138,11.800,25.300,103.500,-0.570,2.812,0.266
2019-06-09-14:49:24.581961,0.634,-0.227,10.093,22.900,73.500,181.700,-0.656,2.906,0.617
2019-06-09-14:49:24.601444,0.694,-0.316,9.959,12.500,75.100,202.600,-0.172,2.898,0.398
2019-06-09-14:49:24.620810,0.646,-0.263,10.069,18.900,61.900,151.900,-0.281,3.078,0.484
2019-06-09-14:49:24.640575,0.622,-0.297,10.117,14.300,74.600,193.800,-0.688,2.875,0.336
2019-06-09-14:49:24.660133,0.644,-0.270,10.045,6.100,32.800,138.100,-1.219,2.750,0.711
2019-06-09-14:49:24.679617,0.660,-0.325,10.071,21.800,79.900,184.400,-0.492,2.812,0.195
2019-06-09-14:49:24.699043,0.653,-0.285,10.093,17.500,53.300,146.300,-0.609,2.734,0.438
2019-06-09-14:49:24.718443,0.651,-0.311,10.122,6.100,38.000,145.200,-0.594,2.836,0.508
2019-06-09-14:49:24.738184,0.670,-0.342,10.055,8.700,19.500,105.000,-0.766,3.031,0.484
2019-06-09-14:49:24.757749,0.684,-0.287,10.129,10.900,63.700,182.100,-0.594,3.094,0.172
2019-06-09-14:49:24.777240,0.668,-0.287,10.069,15.200,32.200,111.700,-0.328,3.008,0.375
2019-06-09-14:49:24.796621,0.644,-0.270,9.976,17.600,82.300,203.300,-0.625,3.102,0.156
2019-06-09-14:49:24.816113,0.617,-0.268,10.086,21.600,64.700,147.000,-0.617,3.055,0.461
2019-06-09-14:49:24.835495,0.644,-0.337,10.059,4.100,63.900,187.500,-0.594,3.102,0.484
2019-06-09-14:49:24.854847,0.636,-0.232,9.973,1.400,39.500,154.700,-0.508,2.969,0.688
2019-06-09-14:49:24.874329,0.665,-0.275,10.021,0.100,42.000,160.000,-0.734,3.031,0.422
2019-06-09-14:49:24.893710,0.668,-0.285,10.050,16.400,86.600,208.400,-0.320,2.812,0.398
2019-06-09-14:49:24.913135,0.632,-0.268,9.995,2.900,25.000,117.000,-0.719,3.055,0.281
2019-06-09-14:49:24.932483,0.641,-0.266,10.035,16.100,33.500,110.500,-0.617,2.812,0.469
2019-06-09-14:49:24.951829,0.641,-0.239,10.055,22.900,76.600,173.600,-0.977,2.789,0.523
2019-06-09-14:49:24.971303,0.658,-0.311,10.093,16.700,88.900,212.500,-0.727,3.078,0.438
2019-06-09-14:49:24.990835,0.634,-0.251,10.055,15.500,84.300,210.200,-0.500,3.055,0.625
2019-06-09-14:49:25.010341,0.634,-0.280,10.067,4.700,40.300,138.600,-0.711,2.812,0.602
2019-06-09-14:49:25.029816,0.632,-0.323,10.119,23.000,71.700,168.500,-0.688,2.617,0.266
2019-06-09-14:49:25.049218,0.663,-0.352,10.119,2.600,40.800,157.000,-0.297,2.922,0.469
2019-06-09-14:49:25.068606,0.603,-0.359,10.086,17.000,81.500,198.700,-0.922,2.898,0.414
2019-06-09-14:49:25.088068,0.641,-0.330,10.102,18.300,82.100,195.800,-0.633,2.750,0.445
2019-06-09-14:49:25.107520,0.670,-0.306,10.069,5.500,30.900,126.000,-0.375,2.797,0.523
2019-06-09-14:49:25.126906,0.639,-0.337,10.102,17.400,73.000,183.500,-0.656,2.578,0.398
2019-06-09-14:49:25.146268,0.670,-0.311,10.143,7.400,34.800,142.800,-0.352,3.008,0.594
2019-06-09-14:49:25.169847,0.689,-0.376,10.007,17.600,66.600,169.000,-0.734,2.836,0.641
2019-06-09-14:49:25.189449,0.615,-0.282,10.088,10.500,70.700,197.000,-0.750,2.898,0.594
2019-06-09-14:49:25.208820,0.632,-0.333,10.117,5.700,55.100,178.500,-0.477,3.031,0.617
2019-06-09-14:49:25.228148,0.653,-0.285,10.110,23.500,108.600,221.100,-0.781,2.898,0.523
2019-06-09-14:49:25.247708,0.668,-0.347,10.100,22.300,27.100,100.800,-0.586,2.875,0.484
2019-06-09-14:49:25.267139,0.634,-0.311,10.148,12.500,36.200,131.400,-0.844,3.008,0.484
2019-06-09-14:49:25.286550,0.648,-0.273,10.035,14.800,71.500,186.900,-0.875,2.773,0.492
2019-06-09-14:49:25.306030,0.684,-0.311,10.026,17.500,71.200,176.000,-0.617,2.648,0.555
2019-06-09-14:49:25.325416,0.634,-0.266,10.153,16.100,42.800,130.000,-0.578,3.047,0.336
2019-06-09-14:49:25.346861,0.648,-0.278,10.086,1.000,42.100,152.800,-0.617,2.898,0.484
2019-06-09-14:49:25.366334,0.644,-0.282,10.050,1.600,37.900,142.700,-0.570,2.969,0.375
2019-06-09-14:49:25.385852,0.636,-0.311,10.055,21.800,72.300,159.500,-0.516,2.922,0.484
2019-06-09-14:49:25.405215,0.629,-0.294,10.083,8.600,18.200,112.500,-0.516,2.922,0.445
2019-06-09-14:49:25.424544,0.682,-0.275,10.064,24.600,90.800,197.900,-0.562,2.820,0.445
2019-06-09-14:49:25.443874,0.718,-0.297,10.098,20.900,39.600,113.000,-1.000,2.789,0.523
2019-06-09-14:49:25.463196,0.615,-0.321,10.098,15.000,97.700,227.500,-0.820,3.016,0.352
2019-06-09-14:49:25.482662,0.689,-0.354,10.059,-0.200,51.100,183.500,-0.289,2.789,0.492
2019-06-09-14:49:25.502042,0.675,-0.294,10.079,26.600,62.300,140.500,-0.977,2.711,0.422
2019-06-09-14:49:25.521492,0.648,-0.292,10.057,1.000,58.000,196.300,-0.891,3.055,0.422
2019-06-09-14:49:25.540835,0.660,-0.254,10.088,37.600,98.000,123.700,-0.219,2.883,0.461
2019-06-09-14:49:25.565783,0.644,-0.306,9.957,22.600,128.700,43.700,-0.328,3.164,0.391
2019-06-09-14:49:25.585379,0.579,-0.227,9.933,22.700,127.500,42.800,-0.859,2.625,0.492
2019-06-09-14:49:25.604789,0.627,-0.220,9.959,24.800,126.100,40.800,-0.172,2.820,0.414
2019-06-09-14:49:25.624228,0.636,-0.244,10.031,23.900,126.500,40.700,-0.484,2.773,0.281
2019-06-09-14:49:25.643598,0.610,-0.287,10.033,23.500,126.500,41.300,-0.617,2.875,0.531
2019-06-09-14:49:25.662942,0.615,-0.304,10.079,23.700,126.600,40.900,-0.945,2.820,0.438
2019-06-09-14:49:25.682381,0.668,-0.287,10.057,23.900,126.000,41.100,-0.648,3.047,0.422
2019-06-09-14:49:25.701825,0.689,-0.299,10.024,23.200,126.400,41.600,-0.562,2.930,0.555
2019-06-09-14:49:25.721272,0.625,-0.244,10.057,23.200,125.500,42.100,-0.297,2.758,0.469
2019-06-09-14:49:25.740771,0.648,-0.282,10.064,23.600,125.400,42.300,-0.508,2.727,0.438
2019-06-09-14:49:25.760215,0.680,-0.306,10.071,23.400,125.900,40.800,-0.742,3.133,0.508
2019-06-09-14:49:25.779687,0.653,-0.301,10.083,23.100,126.900,41.300,-0.750,2.883,0.617
2019-06-09-14:49:25.799112,0.665,-0.299,10.069,23.000,126.700,41.800,-1.070,2.672,0.414
2019-06-09-14:49:25.818482,0.656,-0.313,10.105,23.600,126.700,40.500,-0.664,3.141,0.484
2019-06-09-14:49:25.837919,0.610,-0.287,10.105,23.800,126.700,42.000,-0.711,2.992,0.492
2019-06-09-14:49:25.857268,0.660,-0.290,10.057,23.800,126.100,42.200,-0.617,2.883,0.492
2019-06-09-14:49:25.876650,0.641,-0.301,10.067,24.000,126.200,41.900,-0.641,2.883,0.445
2019-06-09-14:49:25.896151,0.658,-0.280,10.126,22.700,126.600,41.800,-0.461,2.922,0.188
2019-06-09-14:49:25.915544,0.656,-0.294,10.035,23.500,126.100,42.000,-0.180,2.898,0.492
2019-06-09-14:49:25.934901,0.670,-0.282,10.088,24.400,126.400,41.600,-0.688,2.945,0.867
2019-06-09-14:49:25.954348,0.663,-0.280,10.105,23.400,127.500,42.400,-0.773,2.984,0.422
2019-06-09-14:49:25.973703,0.639,-0.299,10.047,23.800,126.600,40.900,-0.781,2.758,0.266
2019-06-09-14:49:25.993153,0.646,-0.285,10.002,23.700,126.900,41.300,-0.664,2.984,0.578
2019-06-09-14:49:26.012622,0.668,-0.278,10.158,23.300,127.400,42.200,-0.781,2.992,0.578
2019-06-09-14:49:26.032000,0.646,-0.275,10.076,23.100,127.000,41.800,-0.391,2.836,0.398
2019-06-09-14:49:26.051464,0.622,-0.282,10.021,22.200,127.300,40.600,-0.539,2.836,0.531
2019-06-09-14:49:26.070824,0.651,-0.266,10.055,23.100,126.700,41.700,-0.492,3.086,-0.055
2019-06-09-14:49:26.090171,0.646,-0.261,10.021,24.300,126.200,41.000,-0.609,2.773,0.266
2019-06-09-14:49:26.109660,0.656,-0.258,10.071,23.700,126.600,41.900,-0.719,3.047,0.602
2019-06-09-14:49:26.129270,0.665,-0.278,10.055,23.100,127.600,40.600,-0.734,2.992,0.312
2019-06-09-14:49:26.148700,0.651,-0.290,10.064,23.800,126.900,41.700,-0.188,3.055,0.469
2019-06-09-14:49:26.168053,0.656,-0.337,10.167,22.500,128.100,40.000,-0.570,2.961,0.438
2019-06-09-14:49:26.187445,0.677,-0.311,10.146,23.800,128.100,41.500,-0.484,2.672,0.352
2019-06-09-14:49:26.206885,0.668,-0.321,10.167,23.900,127.800,40.900,-0.477,3.008,0.414
2019-06-09-14:49:26.226276,0.641,-0.335,10.122,23.500,126.300,40.300,-0.562,2.492,0.461
2019-06-09-14:49:26.245844,0.651,-0.313,10.102,22.800,126.300,41.900,-0.609,2.984,0.258
2019-06-09-14:49:26.265290,0.648,-0.309,10.119,22.700,128.400,42.400,-0.375,2.734,0.461
2019-06-09-14:49:26.284645,0.653,-0.306,10.112,23.400,127.100,41.000,-0.781,2.883,0.648
2019-06-09-14:49:26.304113,0.636,-0.330,10.105,23.700,126.300,40.900,-1.000,2.820,0.523
2019-06-09-14:49:26.323546,0.665,-0.313,10.131,24.000,126.000,42.000,-0.352,3.156,0.461
2019-06-09-14:49:26.342897,0.641,-0.297,10.174,23.400,126.400,40.700,-0.711,2.898,0.391
2019-06-09-14:49:26.368778,0.672,-0.335,10.138,23.400,127.500,42.000,-0.633,2.984,0.570
2019-06-09-14:49:26.388260,0.670,-0.261,10.059,23.200,128.300,42.000,-0.531,2.836,0.547
2019-06-09-14:49:26.407711,0.680,-0.292,10.134,23.500,127.100,42.700,-0.656,2.773,0.523
2019-06-09-14:49:26.427142,0.672,-0.306,10.095,23.800,127.800,40.000,-0.703,2.930,0.422
2019-06-09-14:49:26.446507,0.646,-0.316,10.117,22.600,127.500,41.200,-0.508,2.984,0.688
2019-06-09-14:49:26.465954,0.653,-0.304,10.148,23.400,126.500,40.300,-0.562,2.797,0.570
2019-06-09-14:49:26.485424,0.632,-0.275,10.088,22.700,125.700,40.800,-0.562,2.750,0.594
2019-06-09-14:49:26.504805,0.653,-0.285,10.024,22.400,127.100,41.200,-0.672,3.180,0.422
2019-06-09-14:49:26.524281,0.648,-0.290,10.119,23.400,128.100,42.300,-0.523,3.047,0.625
2019-06-09-14:49:26.543662,0.660,-0.304,10.083,24.000,126.100,41.000,-0.922,2.750,0.508
2019-06-09-14:49:26.563005,0.675,-0.323,10.091,22.800,126.100,40.600,-0.617,2.836,0.414
2019-06-09-14:49:26.582401,0.658,-0.278,10.067,23.900,126.200,40.600,-0.805,2.930,0.148
2019-06-09-14:49:26.601768,0.656,-0.290,10.076,24.000,127.100,40.400,-0.531,2.500,0.570
2019-06-09-14:49:26.621447,0.658,-0.280,10.055,23.100,127.000,41.400,-0.273,3.008,0.531
2019-06-09-14:49:26.640888,0.644,-0.268,10.064,23.900,125.600,40.800,-0.445,3.008,0.469
2019-06-09-14:49:26.660298,0.651,-0.268,10.098,23.800,126.900,40.700,-0.656,2.602,0.148
2019-06-09-14:49:26.679690,0.672,-0.301,10.021,22.800,126.200,41.100,-0.773,2.688,0.570
2019-06-09-14:49:26.699050,0.641,-0.285,10.028,23.400,126.700,42.700,-0.586,2.859,0.492
2019-06-09-14:49:26.718395,0.634,-0.268,10.055,22.400,127.200,41.900,-0.484,2.789,0.641
2019-06-09-14:49:26.738087,0.660,-0.290,10.055,23.400,127.000,40.900,-0.594,2.727,0.414
2019-06-09-14:49:26.757647,0.658,-0.318,10.004,22.500,127.300,41.800,-0.219,2.898,0.281
2019-06-09-14:49:26.777559,0.665,-0.306,10.031,22.500,127.000,42.200,-0.352,3.070,0.398
2019-06-09-14:49:26.797039,0.663,-0.345,10.119,23.700,126.800,41.200,-0.617,2.812,0.570
2019-06-09-14:49:26.816406,0.646,-0.311,10.088,23.700,125.900,41.800,-0.758,3.047,0.461
2019-06-09-14:49:26.835839,0.644,-0.345,10.162,24.100,125.900,42.400,-0.180,2.898,0.414
2019-06-09-14:49:26.857166,0.677,-0.321,10.117,22.900,126.200,40.900,-0.461,2.812,0.461
2019-06-09-14:49:26.876629,0.660,-0.330,10.088,23.500,127.300,42.000,-0.242,2.984,0.523
2019-06-09-14:49:26.896070,0.646,-0.311,10.114,24.000,126.700,41.600,-0.609,2.758,0.625
2019-06-09-14:49:26.915419,0.656,-0.313,10.136,23.400,126.400,41.200,-0.906,2.883,0.391
2019-06-09-14:49:26.934808,0.658,-0.335,10.124,22.800,126.600,41.700,-0.734,2.906,0.703
2019-06-09-14:49:26.954228,0.648,-0.316,10.102,23.600,127.300,40.900,-0.578,3.117,0.422
2019-06-09-14:49:26.973588,0.656,-0.309,10.158,23.500,126.200,41.300,-0.445,2.906,0.148
2019-06-09-14:49:26.993075,0.663,-0.316,10.093,23.200,127.500,42.900,-0.844,3.102,0.602
2019-06-09-14:49:27.012468,0.639,-0.313,10.081,24.200,127.100,42.100,-0.844,3.047,0.578
2019-06-09-14:49:27.031892,0.658,-0.304,10.114,23.100,126.900,43.700,-0.758,2.688,0.281
2019-06-09-14:49:27.051289,0.682,-0.301,10.093,22.600,126.800,42.500,-0.617,2.773,0.352
2019-06-09-14:49:27.070663,0.651,-0.309,10.079,22.900,127.500,40.900,-0.461,2.820,0.414
2019-06-09-14:49:27.090013,0.648,-0.294,10.083,22.200,126.500,41.000,-0.852,2.555,0.328
2019-06-09-14:49:27.109434,0.670,-0.285,10.071,23.200,128.200,39.500,-0.812,2.922,0.312
2019-06-09-14:49:27.128802,0.646,-0.301,10.093,23.700,127.500,40.700,-1.047,2.734,0.492
2019-06-09-14:49:27.148214,0.644,-0.292,10.052,23.700,127.800,41.900,-0.859,2.875,0.617
2019-06-09-14:49:27.167648,0.651,-0.299,10.086,23.100,127.200,41.500,-0.945,2.812,0.414
2019-06-09-14:49:27.186996,0.651,-0.275,10.033,23.400,128.300,41.600,-0.352,2.836,0.523
2019-06-09-14:49:27.206331,0.648,-0.328,10.129,23.200,127.200,41.100,-0.922,2.945,0.484
2019-06-09-14:49:27.225659,0.668,-0.309,10.146,23.900,127.500,42.100,-0.922,2.773,0.367
2019-06-09-14:49:27.245187,0.670,-0.318,10.098,22.700,127.500,41.700,-0.562,2.961,0.305
2019-06-09-14:49:27.264627,0.670,-0.311,10.131,23.000,127.500,41.400,-0.734,2.922,0.391
2019-06-09-14:49:27.284084,0.670,-0.301,10.136,23.100,126.900,41.400,-0.422,2.797,0.328
2019-06-09-14:49:27.303622,0.658,-0.299,10.155,22.400,127.100,42.600,-0.727,2.820,0.547
2019-06-09-14:49:27.323000,0.672,-0.321,10.117,23.500,127.300,40.800,-0.633,2.961,0.398
2019-06-09-14:49:27.342404,0.632,-0.333,10.122,22.600,126.900,40.900,-0.617,3.070,0.352
2019-06-09-14:49:27.361738,0.672,-0.328,10.158,22.000,127.000,41.600,-0.039,2.930,0.469
2019-06-09-14:49:27.381266,0.651,-0.311,10.122,22.400,127.100,41.300,-0.797,2.992,0.391
2019-06-09-14:49:27.400653,0.656,-0.311,10.155,23.100,126.500,42.100,-0.836,2.922,0.492
2019-06-09-14:49:27.420007,0.680,-0.333,10.134,23.400,127.200,43.400,-0.406,3.055,0.367
2019-06-09-14:49:27.439760,0.653,-0.306,10.102,23.900,126.800,41.400,-0.562,2.930,0.367
2019-06-09-14:49:27.459201,0.660,-0.321,10.153,23.200,126.700,41.300,-0.227,2.898,0.469
2019-06-09-14:49:27.478621,0.672,-0.311,10.143,23.400,127.800,40.000,-0.680,2.961,0.469
2019-06-09-14:49:27.498062,0.668,-0.321,10.136,23.000,127.400,40.500,-0.422,2.688,0.484
2019-06-09-14:49:27.517538,0.653,-0.318,10.131,22.900,126.700,41.800,-0.531,2.625,0.438
2019-06-09-14:49:27.536906,0.646,-0.321,10.131,22.700,126.800,41.200,-0.531,2.773,0.266
2019-06-09-14:49:27.556324,0.656,-0.333,10.136,23.700,126.100,41.900,-1.055,2.906,0.242
2019-06-09-14:49:27.576159,0.648,-0.297,10.088,23.600,127.000,41.500,-0.828,2.844,0.266
2019-06-09-14:49:27.595627,0.634,-0.287,10.069,23.100,127.500,42.000,-0.617,2.992,0.336
2019-06-09-14:49:27.614965,0.653,-0.290,10.026,23.200,126.100,41.500,-0.641,2.875,0.469
2019-06-09-14:49:27.634336,0.658,-0.278,10.079,22.900,126.500,41.100,-0.688,3.078,0.461
2019-06-09-14:49:27.653758,0.651,-0.311,10.076,22.800,126.900,40.900,-0.680,2.883,0.508
2019-06-09-14:49:27.673116,0.641,-0.297,10.086,23.300,127.000,40.800,-0.656,2.703,0.289
2019-06-09-14:49:27.692475,0.670,-0.294,10.088,23.500,126.800,41.200,-0.320,2.844,0.438
2019-06-09-14:49:27.711804,0.658,-0.301,10.076,22.600,126.900,41.400,-1.023,2.875,0.594
2019-06-09-14:49:27.731597,0.660,-0.318,10.098,19.100,93.900,97.900,-0.734,2.773,0.336
2019-06-09-14:49:27.751220,0.660,-0.290,10.105,17.800,85.200,102.500,-0.398,2.789,0.328
2019-06-09-14:49:27.770637,0.670,-0.309,10.095,2.000,36.700,99.000,-0.289,2.711,0.484
2019-06-09-14:49:27.790001,0.646,-0.311,10.134,-0.500,44.400,153.800,-0.492,3.055,0.594
2019-06-09-14:49:27.809454,0.658,-0.328,10.114,36.000,126.600,47.200,-0.727,2.844,0.484
2019-06-09-14:49:27.828818,0.677,-0.313,10.146,17.900,67.200,40.600,-0.781,2.883,0.570
2019-06-09-14:49:27.848173,0.677,-0.297,10.131,28.400,126.100,137.100,-0.148,2.836,0.422
2019-06-09-14:49:27.867657,0.639,-0.311,10.114,32.000,124.900,94.100,-0.633,2.836,0.352
2019-06-09-14:49:27.887044,0.656,-0.299,10.136,12.400,67.100,106.700,-0.445,2.812,0.711
2019-06-09-14:49:27.906394,0.682,-0.328,10.131,15.000,79.800,117.500,-0.547,3.008,0.367
2019-06-09-14:49:27.925836,0.627,-0.249,10.038,18.900,91.100,123.800,-0.758,2.875,0.672
2019-06-09-14:49:27.945182,0.651,-0.261,10.045,17.500,71.400,72.400,-0.648,3.047,0.570
2019-06-09-14:49:27.971211,0.660,-0.266,10.024,15.800,78.500,118.000,-1.016,2.727,0.289
2019-06-09-14:49:27.990760,0.653,-0.330,10.122,16.500,75.300,104.000,-0.633,2.930,0.305
2019-06-09-14:49:28.010166,0.660,-0.316,10.102,29.600,101.100,84.300,-0.531,2.664,0.336
2019-06-09-14:49:28.029671,0.672,-0.316,10.162,14.400,93.400,173.300,-0.711,2.812,0.398
2019-06-09-14:49:28.049057,0.672,-0.325,10.162,10.500,61.800,135.700,-1.500,2.859,0.555
2019-06-09-14:49:28.068490,0.636,-0.321,10.105,29.300,74.800,27.400,-0.664,3.016,0.391
2019-06-09-14:49:28.087944,0.660,-0.321,10.114,23.200,56.100,21.200,-0.312,3.078,0.469
2019-06-09-14:49:28.107299,0.660,-0.306,10.131,31.700,139.100,185.700,-0.445,2.898,0.266
2019-06-09-14:49:28.126664,0.646,-0.318,10.136,18.600,121.500,232.900,-0.461,2.859,0.438
2019-06-09-14:49:28.146095,0.658,-0.318,10.131,19.700,65.700,82.800,-0.617,2.836,0.375
2019-06-09-14:49:28.165513,0.656,-0.275,10.134,16.100,87.400,164.100,-0.953,3.016,0.438
2019-06-09-14:49:28.184858,0.668,-0.275,10.055,13.900,79.500,140.000,-0.352,2.750,0.398
2019-06-09-14:49:28.204279,0.658,-0.275,10.031,18.800,65.900,109.500,-0.516,2.641,0.352
2019-06-09-14:49:28.223620,0.639,-0.287,10.074,13.500,87.200,176.900,-0.375,2.820,0.469
2019-06-09-14:49:28.243092,0.675,-0.273,10.057,12.400,66.900,147.400,-0.773,2.844,0.289
2019-06-09-14:49:28.262588,0.644,-0.292,10.050,22.300,75.300,115.900,-0.812,2.844,0.266
2019-06-09-14:49:28.281994,0.646,-0.301,10.071,31.100,76.200,79.700,-0.312,3.055,0.234
2019-06-09-14:49:28.301544,0.653,-0.290,10.059,19.700,69.300,98.200,-0.734,2.789,0.469
2019-06-09-14:49:28.320901,0.663,-0.301,10.100,22.700,92.300,126.100,-0.742,3.102,0.648
2019-06-09-14:49:28.342188,0.648,-0.299,10.102,15.400,77.400,147.300,-0.477,3.008,0.281
2019-06-09-14:49:28.361797,0.651,-0.287,10.100,23.000,127.900,232.200,-0.516,2.797,0.133
2019-06-09-14:49:28.381232,0.658,-0.290,10.112,20.800,77.300,109.000,-0.484,2.836,0.492
2019-06-09-14:49:28.400593,0.670,-0.309,10.131,6.300,91.600,206.100,-0.344,2.859,0.352
2019-06-09-14:49:28.419933,0.668,-0.309,10.107,23.400,115.500,190.100,-0.758,2.812,0.398
2019-06-09-14:49:28.439346,0.653,-0.294,10.124,29.000,99.200,128.000,-0.547,3.031,0.414
2019-06-09-14:49:28.458686,0.634,-0.325,10.086,28.000,101.100,133.500,-0.664,3.031,0.289
2019-06-09-14:49:28.478081,0.656,-0.306,10.102,39.000,122.400,130.700,-0.656,2.961,0.508
2019-06-09-14:49:28.497547,0.656,-0.306,10.079,36.600,153.500,210.300,-0.367,2.945,0.523
2019-06-09-14:49:28.516920,0.660,-0.325,10.126,43.100,120.400,117.000,-0.367,2.797,0.422
2019-06-09-14:49:28.536264,0.658,-0.325,10.174,-14.100,-12.100,59.700,-0.703,2.898,0.445
2019-06-09-14:49:28.555595,0.665,-0.313,10.091,38.200,148.900,189.800,-0.727,2.875,0.391
2019-06-09-14:49:28.574984,0.648,-0.280,10.033,-18.000,11.600,136.200,-0.484,2.898,0.484
2019-06-09-14:49:28.594397,0.620,-0.304,10.014,3.100,75.100,203.200,-0.734,2.727,0.352
2019-06-09-14:49:28.613718,0.660,-0.285,10.064,26.300,95.200,134.900,-0.180,3.055,0.469
2019-06-09-14:49:28.633084,0.653,-0.254,10.019,28.200,93.300,119.100,-0.586,2.930,0.391
2019-06-09-14:49:28.652426,0.627,-0.275,10.028,0.400,27.200,96.300,-1.211,2.711,0.336
2019-06-09-14:49:28.671780,0.634,-0.268,10.026,-6.100,36.900,149.300,-0.859,2.773,0.625
2019-06-09-14:49:28.691241,0.670,-0.280,10.038,3.800,80.800,204.400,-0.680,2.898,0.289
2019-06-09-14:49:28.710599,0.627,-0.273,10.012,29.800,73.300,122.200,-0.586,2.930,0.648
2019-06-09-14:49:28.730095,0.617,-0.256,10.021,26.600,56.600,99.700,-0.828,2.859,0.352
2019-06-09-14:49:28.749695,0.658,-0.266,10.064,12.900,22.300,73.200,-0.391,2.812,0.461
2019-06-09-14:49:28.774672,0.680,-0.290,10.050,0.300,66.000,179.400,-0.734,2.875,0.422
2019-06-09-14:49:28.794242,0.641,-0.268,10.055,0.600,46.200,140.900,-0.711,2.859,0.469
2019-06-09-14:49:28.813628,0.641,-0.275,10.043,17.400,63.700,131.000,-0.633,2.859,0.758
2019-06-09-14:49:28.832985,0.653,-0.273,10.019,6.100,53.800,128.300,-0.609,2.883,0.531
2019-06-09-14:49:28.852415,0.646,-0.292,10.045,3.900,42.300,116.200,-0.781,2.984,0.375
2019-06-09-14:49:28.871849,0.658,-0.285,10.064,16.900,67.300,136.200,-0.250,2.688,0.281
2019-06-09-14:49:28.891305,0.656,-0.273,10.083,13.800,76.700,162.800,-0.688,3.031,0.438
2019-06-09-14:49:28.910669,0.658,-0.285,10.050,17.100,67.300,162.100,-0.977,2.930,0.336
2019-06-09-14:49:28.930009,0.625,-0.318,10.033,12.100,58.500,137.300,-0.484,2.578,0.336
2019-06-09-14:49:28.949435,0.651,-0.275,10.079,15.300,60.800,137.100,-0.633,2.906,0.555
2019-06-09-14:49:28.968783,0.672,-0.280,10.095,15.900,65.800,156.800,-0.219,2.945,0.570
2019-06-09-14:49:28.988174,0.658,-0.270,10.043,16.200,38.700,103.200,-0.617,2.602,0.391
2019-06-09-14:49:29.007665,0.656,-0.309,10.114,13.500,82.400,189.800,-0.562,2.711,0.398
2019-06-09-14:49:29.027066,0.687,-0.306,10.100,5.300,39.300,127.800,-0.617,2.797,0.375
2019-06-09-14:49:29.046438,0.665,-0.321,10.083,9.600,30.900,99.900,-0.445,2.922,0.711
2019-06-09-14:49:29.065922,0.646,-0.309,10.126,12.000,78.400,188.200,-0.891,3.031,0.602
2019-06-09-14:49:29.085379,0.646,-0.330,10.119,24.100,83.000,168.200,-0.422,3.031,0.336
2019-06-09-14:49:29.104753,0.646,-0.278,10.131,14.300,82.500,190.800,-0.664,2.945,0.289
2019-06-09-14:49:29.124199,0.656,-0.278,10.007,24.000,61.500,127.500,-1.000,2.758,0.414
2019-06-09-14:49:29.143572,0.644,-0.270,10.047,21.500,83.800,176.900,-0.641,3.078,0.523
2019-06-09-14:49:29.162914,0.689,-0.261,10.047,26.300,81.800,158.800,-0.602,3.031,0.461
2019-06-09-14:49:29.182752,0.613,-0.304,10.045,14.100,23.500,89.800,-0.586,2.836,0.461
2019-06-09-14:49:29.202295,0.653,-0.261,10.093,10.900,22.600,96.700,-0.875,2.930,0.531
2019-06-09-14:49:29.221759,0.653,-0.273,10.033,26.100,45.800,83.400,-0.812,2.922,0.391
2019-06-09-14:49:29.241309,0.639,-0.242,10.021,20.100,77.500,175.000,-0.414,2.961,0.555
2019-06-09-14:49:29.260743,0.658,-0.254,10.031,4.000,40.600,124.600,-0.469,2.922,0.445
2019-06-09-14:49:29.280172,0.658,-0.256,10.028,20.400,90.900,170.800,-0.703,2.820,0.352
2019-06-09-14:49:29.299646,0.646,-0.270,10.028,22.000,86.300,158.700,-0.531,2.922,0.461
2019-06-09-14:49:29.319009,0.646,-0.249,10.014,10.400,89.500,197.800,-0.711,2.984,0.375
2019-06-09-14:49:29.338358,0.641,-0.290,10.055,11.800,63.600,153.500,-0.773,2.930,0.336
2019-06-09-14:49:29.357773,0.641,-0.263,10.007,12.100,62.500,151.500,-0.570,2.883,0.422
2019-06-09-14:49:29.377143,0.629,-0.275,10.071,12.700,62.100,151.700,-0.492,3.117,0.641
2019-06-09-14:49:29.396554,0.651,-0.270,10.079,9.500,66.600,146.500,-0.367,2.820,0.422
2019-06-09-14:49:29.415981,0.692,-0.268,9.990,12.300,62.200,155.200,-0.781,3.008,0.672
2019-06-09-14:49:29.435352,0.644,-0.299,10.074,11.600,62.800,145.300,-0.594,2.898,0.289
2019-06-09-14:49:29.454718,0.648,-0.313,10.076,10.600,66.200,150.300,-0.750,2.898,0.531
2019-06-09-14:49:29.474180,0.613,-0.335,10.071,13.700,79.900,165.500,-0.617,2.898,0.578
2019-06-09-14:49:29.493755,0.644,-0.321,9.992,5.800,42.000,123.500,-0.664,2.875,0.461
2019-06-09-14:49:29.513168,0.670,-0.313,10.138,13.800,39.400,94.400,-0.547,2.797,0.414
2019-06-09-14:49:29.532528,0.675,-0.328,10.100,21.400,67.300,130.400,-0.422,3.055,0.375
2019-06-09-14:49:29.551881,0.696,-0.323,10.081,21.400,93.600,190.900,-0.484,2.859,0.672
2019-06-09-14:49:29.571480,0.653,-0.297,10.110,6.800,59.900,154.700,-0.375,3.164,0.578
2019-06-09-14:49:29.591269,0.648,-0.263,10.079,12.600,46.700,105.100,-0.969,2.969,0.555
2019-06-09-14:49:29.610729,0.610,-0.275,10.043,17.000,61.200,137.400,-0.586,2.750,0.422
2019-06-09-14:49:29.630151,0.627,-0.285,10.074,4.100,38.000,145.300,-0.344,2.789,0.367
2019-06-09-14:49:29.649604,0.608,-0.290,10.045,10.600,76.700,200.400,-0.570,3.117,0.398
2019-06-09-14:49:29.668981,0.632,-0.299,10.100,3.500,35.700,141.200,-0.547,2.836,0.438
2019-06-09-14:49:29.688343,0.641,-0.321,10.071,1.200,4.600,82.500,-1.055,2.711,0.508
2019-06-09-14:49:29.707859,0.622,-0.227,9.995,20.700,106.000,227.700,-0.953,2.672,0.281
2019-06-09-14:49:29.727243,0.598,-0.273,9.976,17.300,107.600,237.700,-0.531,2.961,0.102
2019-06-09-14:49:29.746783,0.663,-0.227,9.973,0.100,0.600,78.100,-0.602,3.008,0.312
2019-06-09-14:49:29.766253,0.625,-0.280,10.067,-3.100,46.900,170.700,-0.859,2.688,0.469
2019-06-09-14:49:29.785617,0.653,-0.313,10.043,-4.900,18.000,117.700,-0.492,2.875,0.391
2019-06-09-14:49:29.805056,0.663,-0.270,10.038,-5.800,40.000,160.000,-0.836,3.047,0.594
2019-06-09-14:49:29.824415,0.608,-0.266,10.064,21.800,21.900,71.200,-0.828,2.539,0.375
2019-06-09-14:49:29.845738,0.682,-0.273,10.024,20.800,91.600,208.900,-0.773,2.969,0.508
2019-06-09-14:49:29.865196,0.651,-0.299,10.000,16.100,76.800,188.000,-0.430,3.008,0.367
2019-06-09-14:49:29.884578,0.648,-0.282,10.004,20.500,55.500,140.100,-0.547,2.945,0.547
2019-06-09-14:49:29.904049,0.670,-0.268,10.083,18.700,56.100,143.700,-0.484,2.906,0.547
2019-06-09-14:49:29.923409,0.632,-0.313,10.035,16.700,77.300,185.700,-0.758,2.836,0.703
2019-06-09-14:49:29.944512,0.629,-0.316,10.126,15.900,72.800,180.200,-0.953,2.820,0.266
2019-06-09-14:49:29.966772,0.629,-0.278,10.007,11.600,37.300,121.600,-0.586,2.875,0.258
2019-06-09-14:49:29.987956,0.629,-0.258,10.033,17.800,77.100,188.200,-1.062,3.008,0.617
2019-06-09-14:49:30.007961,0.668,-0.278,10.055,20.700,59.800,149.300,-0.398,2.703,0.547
2019-06-09-14:49:30.027571,0.648,-0.282,10.067,18.000,43.300,114.100,-0.391,2.797,0.328
2019-06-09-14:49:30.046997,0.689,-0.299,10.098,7.800,50.300,161.200,-0.641,2.883,0.625
2019-06-09-14:49:30.066587,0.677,-0.273,10.052,19.600,48.200,125.500,-0.703,2.727,0.570
2019-06-09-14:49:30.086185,0.613,-0.299,10.062,22.000,67.900,168.900,-0.375,3.070,0.484
2019-06-09-14:49:30.105806,0.615,-0.280,10.064,13.800,70.300,178.300,-0.875,2.812,0.641
2019-06-09-14:49:30.125320,0.622,-0.316,10.050,19.900,72.000,179.400,-0.953,3.070,0.445
2019-06-09-14:49:30.144689,0.636,-0.316,10.074,11.200,70.500,183.000,-0.805,2.672,0.594
2019-06-09-14:49:30.164150,0.644,-0.330,10.045,13.900,71.500,181.100,-0.438,2.875,0.461
2019-06-09-14:49:30.183515,0.629,-0.299,10.100,16.700,71.200,178.600,-0.219,2.812,0.492
2019-06-09-14:49:30.202934,0.617,-0.301,10.031,15.900,-1.900,43.000,-0.914,3.078,0.570
2019-06-09-14:49:30.222396,0.660,-0.244,10.007,-4.800,-27.500,45.400,-0.219,2.883,0.398
2019-06-09-14:49:30.241849,0.672,-0.290,10.038,-9.600,-17.300,74.400,-0.734,2.859,0.672
2019-06-09-14:49:30.261375,0.658,-0.278,10.112,26.500,20.600,61.500,-0.312,3.070,0.492
2019-06-09-14:49:30.280748,0.651,-0.266,10.016,26.700,19.200,61.500,-0.883,2.797,0.664
2019-06-09-14:49:30.300096,0.687,-0.251,10.062,16.000,29.300,113.700,-0.781,2.734,0.547
2019-06-09-14:49:30.319608,0.665,-0.306,10.002,28.100,93.400,193.300,-0.812,2.859,0.492
2019-06-09-14:49:30.338977,0.653,-0.282,9.990,-5.300,-23.200,36.000,-0.828,2.641,0.461
2019-06-09-14:49:30.358328,0.660,-0.316,10.076,-6.800,87.800,252.000,-0.438,2.797,0.523
2019-06-09-14:49:30.378309,0.646,-0.244,9.985,-2.600,-11.400,47.600,-0.531,2.750,0.414
2019-06-09-14:49:30.397876,0.646,-0.275,10.012,-1.200,-5.100,53.200,-0.180,3.141,0.289
2019-06-09-14:49:30.417318,0.639,-0.263,10.081,7.200,-2.800,46.300,-0.688,2.945,0.594
2019-06-09-14:49:30.436685,0.651,-0.275,10.009,-11.900,-1.500,84.900,-0.656,2.812,0.367
2019-06-09-14:49:30.456120,0.627,-0.239,9.985,-1.100,-9.700,47.000,-0.438,2.812,0.555
2019-06-09-14:49:30.475481,0.634,-0.294,10.062,10.200,-3.900,36.300,-0.859,2.883,0.289
2019-06-09-14:49:30.494870,0.665,-0.242,10.028,35.100,97.500,174.800,-0.898,2.750,0.578
2019-06-09-14:49:30.514366,0.670,-0.256,10.069,32.600,72.500,123.500,-0.664,2.711,0.148
2019-06-09-14:49:30.533758,0.644,-0.333,10.069,2.300,99.800,271.500,-0.711,2.797,0.312
2019-06-09-14:49:30.553085,0.672,-0.268,10.050,2.100,92.200,259.800,-0.695,3.078,0.336
2019-06-09-14:49:30.572438,0.629,-0.297,10.050,-3.100,73.200,235.500,-0.570,2.859,0.438
2019-06-09-14:49:30.591848,0.656,-0.268,10.064,-14.300,8.200,110.800,-0.547,3.016,0.555
2019-06-09-14:49:30.611331,0.648,-0.306,10.091,21.300,114.100,243.600,-0.367,2.750,0.508
2019-06-09-14:49:30.630710,0.632,-0.304,10.074,7.000,72.800,198.000,-0.828,2.812,0.367
2019-06-09-14:49:30.650066,0.629,-0.371,10.076,27.700,56.900,108.600,-0.625,3.211,0.320
2019-06-09-14:49:30.669505,0.660,-0.299,10.026,30.400,88.100,159.700,-0.711,2.820,0.758
2019-06-09-14:49:30.688877,0.579,-0.244,10.024,26.700,41.900,93.500,-0.180,2.961,0.750
2019-06-09-14:49:30.708225,0.613,-0.258,10.059,11.100,-10.900,44.400,-0.250,2.883,0.664
2019-06-09-14:49:30.727705,0.644,-0.270,10.062,-7.400,9.900,107.800,-0.648,3.008,0.672
2019-06-09-14:49:30.747186,0.665,-0.328,10.112,46.500,79.500,130.400,-0.680,2.812,0.305
2019-06-09-14:49:30.766624,0.668,-0.294,10.091,36.400,14.200,41.000,0.086,2.953,0.453
2019-06-09-14:49:30.786055,0.694,-0.290,10.122,44.500,140.500,258.000,-0.977,2.734,0.352
2019-06-09-14:49:30.805422,0.689,-0.304,10.091,36.000,19.200,47.400,-0.555,3.078,0.508
2019-06-09-14:49:30.824895,0.615,-0.278,10.112,38.500,148.800,286.500,-0.914,3.031,0.391
2019-06-09-14:49:30.844348,0.613,-0.287,9.976,14.600,136.200,317.800,-0.977,2.820,0.328
2019-06-09-14:49:30.863783,0.620,-0.282,10.021,-13.200,57.900,236.700,-0.422,3.094,0.523
2019-06-09-14:49:30.883174,0.591,-0.278,10.026,21.600,142.100,312.300,-0.719,3.070,0.188
2019-06-09-14:49:30.902534,0.663,-0.227,10.079,25.000,-4.800,22.600,-0.727,2.945,0.602
2019-06-09-14:49:30.921929,0.651,-0.316,10.028,18.400,1.000,46.400,-0.414,2.820,0.523
2019-06-09-14:49:30.941293,0.608,-0.282,10.086,-18.400,33.900,197.200,-0.391,2.641,0.523
2019-06-09-14:49:30.960629,0.617,-0.301,10.117,-8.500,39.100,174.500,-1.164,2.875,0.484
2019-06-09-14:49:30.979972,0.648,-0.313,10.191,43.800,124.700,218.500,-0.195,2.930,0.555
2019-06-09-14:49:30.999479,0.658,-0.352,10.091,26.000,112.100,243.500,-0.570,3.164,0.414
2019-06-09-14:49:31.018853,0.632,-0.354,10.205,31.900,100.900,206.800,-0.633,2.773,0.578
2019-06-09-14:49:31.038366,0.663,-0.316,10.057,-12.000,-8.300,88.700,-0.727,2.883,0.555
2019-06-09-14:49:31.057820,0.665,-0.321,10.158,37.400,45.200,77.300,-0.648,3.055,0.555
2019-06-09-14:49:31.077195,0.627,-0.342,10.155,11.700,132.000,303.500,-0.430,3.141,0.641
2019-06-09-14:49:31.096543,0.632,-0.325,10.076,-18.400,-26.300,53.200,-0.664,3.008,0.711
2019-06-09-14:49:31.115976,0.680,-0.340,10.169,-11.500,-32.500,29.200,-0.492,3.102,0.484
2019-06-09-14:49:31.135399,0.675,-0.273,10.102,28.700,13.100,38.200,-0.664,2.883,0.375
2019-06-09-14:49:31.154961,0.675,-0.304,10.088,42.500,109.300,181.900,-0.883,2.844,0.398
2019-06-09-14:49:31.174971,0.672,-0.306,10.124,-16.000,-26.600,47.200,-0.734,2.984,0.531
2019-06-09-14:49:31.194514,0.672,-0.340,10.095,17.000,-16.300,14.100,-0.820,3.180,0.391
2019-06-09-14:49:31.213924,0.687,-0.299,10.117,41.400,85.400,139.300,-0.508,2.930,0.734
2019-06-09-14:49:31.233458,0.663,-0.318,10.117,33.100,143.100,271.200,-0.695,3.008,0.469
2019-06-09-14:49:31.252915,0.711,-0.278,10.019,0.300,-31.200,15.800,-0.695,3.094,0.484
2019-06-09-14:49:31.272390,0.625,-0.261,10.160,-19.800,-10.800,88.100,-0.703,2.945,0.469
2019-06-09-14:49:31.291789,0.644,-0.275,10.067,-1.000,108.800,287.900,-0.242,2.812,0.211
2019-06-09-14:49:31.311245,0.665,-0.273,10.095,42.100,101.000,166.600,-0.562,2.969,0.305
2019-06-09-14:49:31.332683,0.617,-0.309,10.026,-4.200,97.400,276.900,-0.438,2.664,0.289
2019-06-09-14:49:31.352168,0.644,-0.340,10.021,-19.500,-13.300,81.800,0.039,2.766,0.352
2019-06-09-14:49:31.371674,0.663,-0.275,10.050,24.600,134.000,274.400,-0.367,2.883,0.398
2019-06-09-14:49:31.391142,0.675,-0.287,10.026,32.900,143.400,269.500,-0.422,2.844,0.672
2019-06-09-14:49:31.410521,0.596,-0.313,10.079,19.900,123.800,261.600,-0.156,2.898,0.508
2019-06-09-14:49:31.429876,0.665,-0.299,10.079,11.300,88.100,212.600,-0.547,3.008,0.672
2019-06-09-14:49:31.449381,0.608,-0.304,10.102,13.900,78.000,209.800,-0.219,2.945,0.281
2019-06-09-14:49:31.468751,0.617,-0.304,10.155,27.800,126.200,250.300,-0.641,3.016,0.391
2019-06-09-14:49:31.488121,0.656,-0.359,10.129,20.700,84.500,202.600,-0.516,2.703,0.328
2019-06-09-14:49:31.507584,0.663,-0.337,10.086,15.600,73.700,181.400,-0.523,3.055,0.375
2019-06-09-14:49:31.526948,0.636,-0.318,10.119,19.700,59.600,147.700,-0.172,2.789,0.461
2019-06-09-14:49:31.546390,0.639,-0.357,10.143,6.400,32.000,138.900,-0.484,2.898,0.367
2019-06-09-14:49:31.565848,0.644,-0.342,10.172,7.900,36.800,137.100,-0.734,2.836,0.398
2019-06-09-14:49:31.585605,0.684,-0.359,10.222,20.700,74.800,177.700,-0.727,2.945,0.312
2019-06-09-14:49:31.605053,0.680,-0.347,10.186,19.500,75.500,180.700,-0.773,2.906,0.523
2019-06-09-14:49:31.624439,0.648,-0.361,10.055,8.200,67.700,190.800,-0.617,3.078,0.461
2019-06-09-14:49:31.643875,0.694,-0.258,10.071,9.500,68.300,190.000,-0.156,2.898,0.414
2019-06-09-14:49:31.663291,0.656,-0.330,10.119,13.500,73.900,198.100,-0.492,2.930,0.438
2019-06-09-14:49:31.682671,0.639,-0.380,10.057,3.200,32.500,149.600,-0.734,2.789,0.570
2019-06-09-14:49:31.702031,0.675,-0.292,10.184,21.400,49.500,137.600,-0.422,2.961,0.484
2019-06-09-14:49:31.721497,0.648,-0.325,10.083,2.800,36.200,141.400,-0.641,2.859,0.547
2019-06-09-14:49:31.740996,0.644,-0.311,10.074,7.300,31.400,120.300,-1.094,2.812,0.578
2019-06-09-14:49:31.760458,0.687,-0.290,10.045,21.400,66.700,165.700,-0.406,3.031,0.492
2019-06-09-14:49:31.779847,0.656,-0.251,10.071,17.700,37.800,123.800,-0.688,2.711,0.312
2019-06-09-14:49:31.799217,0.632,-0.261,10.114,12.400,64.400,174.300,-0.570,2.734,0.414
2019-06-09-14:49:31.818568,0.639,-0.297,10.016,36.300,89.100,175.100,-0.328,2.906,0.484
2019-06-09-14:49:31.837922,0.634,-0.225,10.009,-0.300,35.000,154.900,-0.734,2.812,0.461
2019-06-09-14:49:31.857351,0.613,-0.306,10.083,10.700,53.800,169.500,-0.578,3.055,0.469
2019-06-09-14:49:31.876727,0.653,-0.290,9.985,12.800,76.600,198.100,-0.852,2.469,0.773
2019-06-09-14:49:31.896080,0.610,-0.261,10.091,5.400,32.700,118.700,-0.508,2.797,0.375
2019-06-09-14:49:31.915425,0.684,-0.306,10.071,5.300,34.100,123.800,-0.633,2.969,0.461
2019-06-09-14:49:31.934782,0.627,-0.273,10.045,5.600,67.300,188.100,-0.344,2.773,0.508
2019-06-09-14:49:31.954338,0.646,-0.323,10.126,12.600,33.800,108.000,-0.750,2.875,0.398
2019-06-09-14:49:31.973717,0.648,-0.278,10.026,10.800,38.600,119.900,-0.836,2.711,0.555
2019-06-09-14:49:31.993144,0.627,-0.270,10.086,16.000,77.800,195.600,-0.352,2.906,0.484
2019-06-09-14:49:32.012550,0.656,-0.282,10.136,5.600,34.700,137.700,-0.078,2.875,0.438
2019-06-09-14:49:32.031933,0.641,-0.285,10.095,17.300,62.800,165.800,-0.594,2.797,0.484
2019-06-09-14:49:32.051385,0.665,-0.309,10.134,17.500,89.900,207.800,-0.695,3.031,0.688
2019-06-09-14:49:32.070807,0.660,-0.294,9.961,9.100,38.800,122.900,-0.664,2.688,0.414
2019-06-09-14:49:32.090173,0.706,-0.287,10.119,7.400,62.900,181.200,-0.758,3.133,0.367
2019-06-09-14:49:32.109634,0.617,-0.270,10.014,5.400,59.800,179.000,-0.703,2.906,0.445
2019-06-09-14:49:32.129008,0.648,-0.237,9.980,11.100,36.200,129.100,-0.617,3.047,0.266
2019-06-09-14:49:32.148368,0.634,-0.242,10.057,6.000,61.600,182.700,-0.812,2.984,0.258
2019-06-09-14:49:32.167873,0.625,-0.242,9.973,12.900,49.200,134.300,-0.688,2.797,0.414
2019-06-09-14:49:32.187298,0.687,-0.304,10.079,7.100,42.900,156.600,-0.734,2.844,0.078
2019-06-09-14:49:32.206665,0.601,-0.239,9.964,12.400,68.800,192.300,-0.703,2.875,0.305
2019-06-09-14:49:32.226115,0.651,-0.311,10.100,11.000,32.900,124.400,-0.461,2.797,0.414
2019-06-09-14:49:32.245576,0.658,-0.278,10.105,13.300,73.400,194.400,-1.070,2.898,0.438
2019-06-09-14:49:32.265091,0.639,-0.306,10.007,14.100,69.800,190.800,-0.750,2.812,0.438
2019-06-09-14:49:32.284502,0.682,-0.270,10.055,8.700,61.900,190.500,-0.719,3.156,0.594
2019-06-09-14:49:32.303871,0.629,-0.263,9.988,5.900,38.600,150.800,-0.492,2.797,0.125
2019-06-09-14:49:32.323235,0.589,-0.256,10.038,11.700,44.400,130.600,-0.477,2.992,0.133
2019-06-09-14:49:32.342595,0.651,-0.297,9.968,8.000,59.400,178.800,-0.758,2.641,0.461
2019-06-09-14:49:32.361998,0.653,-0.261,10.045,6.900,37.000,148.500,-0.492,2.727,0.555
2019-06-09-14:49:32.382074,0.648,-0.345,10.129,8.700,35.900,144.200,-0.695,2.992,0.422
2019-06-09-14:49:32.401656,0.641,-0.273,9.947,18.000,67.200,176.500,-0.531,2.883,0.234
2019-06-09-14:49:32.421121,0.651,-0.270,10.057,2.300,24.900,132.700,-0.930,2.812,0.461
2019-06-09-14:49:32.440772,0.646,-0.333,10.069,11.300,32.300,133.100,-0.773,2.969,0.266
2019-06-09-14:49:32.460288,0.689,-0.306,10.059,13.500,78.100,201.700,-0.711,2.906,0.312
2019-06-09-14:49:32.479737,0.656,-0.306,10.129,25.700,43.500,117.500,-0.648,3.070,0.414
2019-06-09-14:49:32.499156,0.668,-0.345,10.129,10.700,-18.000,25.500,-0.656,2.898,0.469
2019-06-09-14:49:32.518536,0.641,-0.290,10.052,7.700,79.200,223.100,-0.414,2.750,0.555
2019-06-09-14:49:32.537893,0.696,-0.301,10.110,42.500,64.700,124.500,-0.273,2.922,0.594
2019-06-09-14:49:32.557239,0.699,-0.278,10.155,18.700,46.300,147.400,-0.594,3.203,0.531
2019-06-09-14:49:32.576860,0.632,-0.340,10.038,4.300,55.600,186.200,-0.516,3.047,0.438
2019-06-09-14:49:32.596285,0.663,-0.244,10.074,13.000,28.800,118.700,-0.406,3.008,0.258
2019-06-09-14:49:32.615646,0.639,-0.306,10.016,20.500,77.200,174.400,-0.578,2.992,0.391
2019-06-09-14:49:32.635018,0.646,-0.294,10.026,-0.900,40.300,157.000,-0.883,2.992,0.547
2019-06-09-14:49:32.654611,0.601,-0.294,10.014,16.400,33.100,117.900,-0.617,2.922,0.594
2019-06-09-14:49:32.674260,0.625,-0.270,10.009,9.500,80.300,214.400,-0.516,2.672,0.523
2019-06-09-14:49:32.693712,0.646,-0.287,10.040,1.200,23.000,121.000,-0.609,2.898,0.211
2019-06-09-14:49:32.713177,0.651,-0.244,10.081,23.700,80.000,174.900,-0.445,2.797,0.281
2019-06-09-14:49:32.732609,0.684,-0.328,10.088,-2.700,38.200,157.200,-0.273,2.789,0.508
2019-06-09-14:49:32.752076,0.608,-0.268,9.997,25.900,64.900,143.600,-0.992,2.812,0.461
2019-06-09-14:49:32.771639,0.639,-0.278,10.014,-3.900,25.700,131.600,-1.094,2.648,0.641
2019-06-09-14:49:32.791511,0.651,-0.275,10.074,4.800,73.000,214.300,-0.617,2.898,0.617
2019-06-09-14:49:32.810959,0.622,-0.294,10.119,-2.700,48.200,182.200,-0.703,2.930,0.469
2019-06-09-14:49:32.832540,0.660,-0.273,10.024,24.900,70.400,156.400,-0.055,2.984,0.555
2019-06-09-14:49:32.852090,0.648,-0.273,10.035,16.400,96.100,222.200,-0.727,2.844,0.438
2019-06-09-14:49:32.871643,0.651,-0.309,10.057,6.800,9.400,97.700,-0.578,3.031,0.445
2019-06-09-14:49:32.891095,0.617,-0.251,10.050,12.100,91.600,225.900,-0.648,3.094,0.414
2019-06-09-14:49:32.910459,0.696,-0.282,10.079,25.900,88.700,188.800,-0.398,3.055,0.336
2019-06-09-14:49:32.929815,0.682,-0.354,10.134,-5.400,31.400,148.500,-0.852,2.617,0.688
2019-06-09-14:49:32.949162,0.627,-0.321,10.126,5.300,75.000,215.300,-0.773,2.898,0.469
2019-06-09-14:49:32.968501,0.692,-0.304,10.102,13.400,12.200,82.500,-0.875,2.648,0.367
2019-06-09-14:49:32.987934,0.672,-0.342,10.098,26.800,68.500,152.700,-0.984,3.094,0.469
2019-06-09-14:49:33.007370,0.598,-0.335,10.126,-1.900,48.000,179.900,-0.688,2.797,0.312
2019-06-09-14:49:33.026756,0.632,-0.330,10.088,24.200,46.500,116.600,-0.484,2.812,0.570
2019-06-09-14:49:33.046131,0.668,-0.347,10.091,0.800,14.100,100.600,-0.609,2.945,0.312
2019-06-09-14:49:33.065480,0.648,-0.306,10.016,25.500,63.800,144.700,-0.398,3.117,0.492
2019-06-09-14:49:33.084900,0.641,-0.270,10.095,11.500,14.700,85.800,-0.531,2.875,0.531
2019-06-09-14:49:33.104356,0.627,-0.318,10.102,1.500,67.800,209.200,-0.445,2.812,0.461
2019-06-09-14:49:33.123723,0.634,-0.340,10.069,15.400,99.700,236.600,-0.789,2.992,0.641
2019-06-09-14:49:33.143066,0.613,-0.299,10.141,5.600,8.000,88.700,-0.539,2.758,0.211
2019-06-09-14:49:33.162400,0.656,-0.306,10.067,26.100,80.600,174.100,-0.477,3.102,0.461
2019-06-09-14:49:33.181788,0.660,-0.309,10.117,-3.200,37.200,154.600,-0.562,2.688,0.531
2019-06-09-14:49:33.201246,0.634,-0.328,10.155,26.000,70.000,153.500,-1.141,2.883,0.289
2019-06-09-14:49:33.220633,0.644,-0.318,10.064,-5.200,30.300,139.100,-0.664,2.883,0.391
2019-06-09-14:49:33.240089,0.675,-0.330,10.064,25.300,76.500,167.400,-0.367,2.836,0.617
2019-06-09-14:49:33.259604,0.672,-0.311,10.129,-2.500,42.300,170.900,-0.109,2.797,0.445
2019-06-09-14:49:33.278995,0.632,-0.287,10.160,3.500,14.600,96.900,-0.195,2.734,0.375
2019-06-09-14:49:33.298432,0.660,-0.301,10.074,-3.800,21.100,121.900,-0.570,2.562,0.555
2019-06-09-14:49:33.317881,0.639,-0.311,10.057,1.100,12.400,97.700,-0.469,3.070,0.305
2019-06-09-14:49:33.337251,0.677,-0.313,10.155,6.700,83.400,230.800,-1.102,2.992,0.508
2019-06-09-14:49:33.356601,0.684,-0.340,10.179,11.700,7.300,81.900,-0.516,3.047,0.578
2019-06-09-14:49:33.376049,0.665,-0.342,10.114,10.200,93.000,233.700,-0.344,2.836,0.461
2019-06-09-14:49:33.395472,0.694,-0.313,10.095,29.800,78.100,160.400,-0.641,2.883,0.312
2019-06-09-14:49:33.414835,0.620,-0.318,10.129,-3.700,51.000,203.400,-0.273,2.859,0.594
2019-06-09-14:49:33.434257,0.656,-0.352,10.167,-6.300,-0.300,87.600,-0.609,2.859,0.461
2019-06-09-14:49:33.453611,0.632,-0.301,10.177,-9.700,15.100,134.600,-0.406,3.070,0.570
2019-06-09-14:49:33.472955,0.646,-0.282,10.100,28.100,117.100,239.700,-0.633,2.812,0.555
2019-06-09-14:49:33.492439,0.639,-0.345,10.069,-10.200,30.900,173.000,-0.539,2.812,0.492
2019-06-09-14:49:33.511840,0.692,-0.299,10.172,7.000,-11.400,50.100,-0.273,2.898,0.391
2019-06-09-14:49:33.531288,0.689,-0.361,10.155,22.800,120.000,258.800,-0.422,2.836,0.445
2019-06-09-14:49:33.550652,0.608,-0.357,10.047,-5.100,62.500,225.100,-0.586,2.898,0.492
2019-06-09-14:49:33.570013,0.625,-0.299,10.086,30.700,30.800,90.000,-0.773,2.758,0.367
2019-06-09-14:49:33.589765,0.656,-0.290,10.102,37.000,83.100,164.100,-0.852,2.703,0.492
2019-06-09-14:49:33.609394,0.715,-0.258,10.064,35.700,105.400,206.400,-0.492,2.992,0.469
2019-06-09-14:49:33.628820,0.665,-0.292,10.093,46.200,107.100,194.600,-0.773,2.734,0.625
2019-06-09-14:49:33.648210,0.677,-0.285,10.050,-6.800,-8.300,68.400,-0.805,2.984,0.570
2019-06-09-14:49:33.667673,0.632,-0.270,10.000,-13.300,-27.500,44.000,0.016,2.938,0.469
2019-06-09-14:49:33.687073,0.589,-0.278,10.009,32.000,44.900,102.100,-0.352,2.922,0.422
2019-06-09-14:49:33.706518,0.620,-0.244,10.043,25.300,17.200,68.500,-0.289,2.859,0.469
2019-06-09-14:49:33.725969,0.672,-0.299,10.062,31.800,37.500,85.900,-0.500,3.008,0.594
2019-06-09-14:49:33.745424,0.653,-0.270,10.076,-12.200,17.600,140.900,-0.695,3.047,0.484
2019-06-09-14:49:33.764955,0.665,-0.301,10.150,13.700,-4.200,44.600,-0.383,3.016,0.461
2019-06-09-14:49:33.784352,0.680,-0.278,10.028,17.300,123.000,268.800,-0.375,2.797,0.398
2019-06-09-14:49:33.803791,0.641,-0.304,10.047,-14.700,13.200,120.700,-0.375,2.734,0.391
2019-06-09-14:49:33.823176,0.629,-0.354,10.069,3.100,99.800,263.000,-0.414,2.539,0.492
2019-06-09-14:49:33.842529,0.675,-0.342,10.114,-13.500,15.600,126.800,-0.734,3.055,0.547
2019-06-09-14:49:33.861860,0.646,-0.287,10.117,28.900,42.500,97.000,-0.398,2.992,0.594
2019-06-09-14:49:33.881362,0.646,-0.268,10.079,17.800,8.100,57.700,-0.484,2.820,0.555
2019-06-09-14:49:33.900732,0.660,-0.280,9.980,20.400,16.700,67.500,-0.531,2.727,0.398
2019-06-09-14:49:33.920131,0.682,-0.309,10.124,32.700,63.700,128.500,-0.289,2.789,0.242
2019-06-09-14:49:33.939571,0.680,-0.299,10.088,34.500,75.300,146.000,-0.648,3.102,0.648
2019-06-09-14:49:33.958935,0.627,-0.266,10.067,14.300,119.900,272.500,-0.633,2.875,0.398
2019-06-09-14:49:33.978727,0.646,-0.258,10.067,17.900,122.400,271.500,-0.438,2.812,0.617
2019-06-09-14:49:33.998485,0.656,-0.246,10.055,34.000,106.000,200.900,-0.609,2.664,0.367
2019-06-09-14:49:34.018000,0.665,-0.297,10.050,29.400,121.900,242.600,-0.688,2.906,0.414
2019-06-09-14:49:34.037384,0.682,-0.280,10.019,-3.700,91.600,262.900,-1.148,2.961,0.594
2019-06-09-14:49:34.056745,0.620,-0.270,9.992,-8.100,-24.400,37.100,-0.734,2.875,0.547
2019-06-09-14:49:34.076106,0.601,-0.244,9.968,-4.500,80.700,245.300,-0.656,2.898,0.570
2019-06-09-14:49:34.095446,0.625,-0.256,10.057,-4.600,-4.200,64.300,-0.516,2.617,0.461
2019-06-09-14:49:34.114858,0.660,-0.258,10.004,-3.700,53.100,208.700,-0.867,3.016,0.594
2019-06-09-14:49:34.134302,0.658,-0.311,10.093,-11.500,11.800,134.100,-0.664,2.945,0.352
2019-06-09-14:49:34.153658,0.629,-0.256,10.055,27.600,35.200,93.200,-0.797,3.070,0.445
2019-06-09-14:49:34.173001,0.644,-0.280,10.000,9.300,-6.400,53.600,-0.242,2.922,0.547
2019-06-09-14:49:34.192429,0.653,-0.254,10.086,31.400,108.700,220.900,-0.469,2.734,0.648
2019-06-09-14:49:34.211813,0.603,-0.275,9.985,-7.400,13.900,130.800,-0.641,3.008,0.445
2019-06-09-14:49:34.231333,0.634,-0.294,10.052,32.400,96.600,195.400,-0.398,2.961,0.531
2019-06-09-14:49:34.250800,0.653,-0.287,10.091,4.100,88.000,256.600,-0.398,2.922,0.469
2019-06-09-14:49:34.270244,0.670,-0.258,10.019,28.500,118.800,240.300,-0.477,3.008,0.469
2019-06-09-14:49:34.289626,0.648,-0.273,10.069,30.100,118.600,241.300,-0.297,3.078,0.305
2019-06-09-14:49:34.310928,0.682,-0.261,10.083,37.900,68.900,138.000,-1.031,2.836,0.492
2019-06-09-14:49:34.330471,0.682,-0.254,10.035,22.800,11.500,67.300,0.000,2.898,0.578
2019-06-09-14:49:34.349858,0.663,-0.256,10.062,30.700,36.800,96.200,-0.664,2.648,0.195
2019-06-09-14:49:34.369197,0.653,-0.263,10.093,-5.000,64.400,237.300,-0.531,2.773,0.281
2019-06-09-14:49:34.388542,0.634,-0.318,10.050,13.400,-5.700,51.300,-0.734,2.750,0.445
2019-06-09-14:49:34.407867,0.653,-0.273,10.114,34.100,116.600,226.000,-0.547,2.984,0.469
2019-06-09-14:49:34.427280,0.603,-0.261,10.045,39.800,97.200,182.700,-0.375,2.898,0.602
2019-06-09-14:49:34.446656,0.672,-0.290,9.983,-15.700,8.400,136.300,-0.594,2.922,0.531
2019-06-09-14:49:34.466095,0.648,-0.299,10.026,40.500,63.400,123.600,-0.617,2.844,0.664
2019-06-09-14:49:34.485474,0.625,-0.270,10.102,35.600,84.700,168.300,-0.695,3.070,0.625
2019-06-09-14:49:34.504882,0.658,-0.313,9.992,-2.000,70.400,241.400,-0.883,2.820,0.461
2019-06-09-14:49:34.524370,0.684,-0.299,10.062,-17.300,2.800,120.700,-0.367,2.844,0.414
2019-06-09-14:49:34.543773,0.625,-0.316,10.062,6.300,127.800,295.400,-0.828,2.797,0.523
2019-06-09-14:49:34.563129,0.646,-0.323,10.028,1.400,114.300,288.200,-0.570,3.047,0.555
2019-06-09-14:49:34.582658,0.668,-0.227,10.035,11.600,-20.600,19.400,-0.477,3.102,0.570
2019-06-09-14:49:34.602047,0.625,-0.239,10.028,35.800,70.400,128.900,-0.734,2.758,0.328
2019-06-09-14:49:34.621505,0.620,-0.266,9.980,-9.900,69.700,232.900,-0.953,3.008,0.492
2019-06-09-14:49:34.641043,0.663,-0.282,9.957,-10.600,63.700,221.800,-0.367,2.883,0.438
2019-06-09-14:49:34.660644,0.636,-0.254,10.086,29.100,44.700,92.700,-0.242,2.875,0.352
2019-06-09-14:49:34.680169,0.670,-0.275,10.074,28.000,47.300,98.000,-0.547,2.711,0.508
2019-06-09-14:49:34.699656,0.617,-0.244,9.990,-6.700,74.000,237.400,-0.922,2.930,0.336
2019-06-09-14:49:34.719049,0.617,-0.270,10.057,-9.300,60.300,213.900,-0.812,2.648,0.328
2019-06-09-14:49:34.738580,0.670,-0.287,10.045,26.800,48.000,99.700,-0.727,2.664,0.328
2019-06-09-14:49:34.758067,0.641,-0.261,10.043,-6.000,66.000,220.200,-0.461,2.812,0.602
2019-06-09-14:49:34.777657,0.658,-0.304,9.918,22.500,127.300,47.700,-0.375,2.688,0.492
2019-06-09-14:49:34.797590,0.665,-0.347,10.167,23.900,128.500,44.400,-0.789,2.906,0.445
2019-06-09-14:49:34.817050,0.629,-0.347,10.141,23.100,127.900,43.400,-0.633,2.945,0.375
2019-06-09-14:49:34.836468,0.668,-0.299,10.076,22.300,128.700,45.100,-0.906,2.844,0.547
2019-06-09-14:49:34.855938,0.660,-0.321,10.083,22.600,129.100,43.900,-0.492,2.945,0.602
2019-06-09-14:49:34.875322,0.644,-0.282,10.059,22.600,128.200,44.200,-0.375,2.961,0.484
2019-06-09-14:49:34.894688,0.641,-0.304,10.102,22.500,129.200,43.200,-0.836,2.969,0.391
2019-06-09-14:49:34.914135,0.653,-0.321,10.119,23.000,129.500,44.700,-0.930,2.898,0.438
2019-06-09-14:49:34.933504,0.644,-0.278,10.129,22.600,129.500,44.600,-0.547,3.141,0.398
2019-06-09-14:49:34.952914,0.622,-0.290,10.091,22.600,129.300,43.900,-0.859,2.836,0.469
2019-06-09-14:49:34.972354,0.663,-0.333,9.980,23.500,130.000,43.300,-0.445,2.945,0.555
2019-06-09-14:49:34.991910,0.615,-0.273,10.055,21.800,129.100,44.400,-0.812,2.859,0.508
2019-06-09-14:49:35.011332,0.665,-0.285,10.134,23.300,128.800,43.400,-0.680,2.844,0.641
2019-06-09-14:49:35.030709,0.677,-0.325,10.069,22.100,128.600,43.800,-0.688,2.797,0.289
2019-06-09-14:49:35.050143,0.653,-0.280,10.098,21.800,128.700,43.500,-1.172,2.875,0.281
2019-06-09-14:49:35.069617,0.665,-0.287,10.079,22.300,129.200,43.700,-0.664,3.164,0.414
2019-06-09-14:49:35.088987,0.622,-0.249,9.968,22.300,129.200,44.500,-0.469,2.797,0.211
2019-06-09-14:49:35.108346,0.644,-0.278,10.038,22.100,129.400,45.200,-0.930,2.875,0.438
2019-06-09-14:49:35.127779,0.670,-0.254,10.062,22.800,130.100,44.200,-0.508,2.898,0.570
2019-06-09-14:49:35.147186,0.653,-0.337,9.933,22.600,128.200,43.400,-0.570,3.078,0.547
2019-06-09-14:49:35.166544,0.653,-0.330,10.196,22.000,129.800,42.400,-0.320,2.922,0.391
2019-06-09-14:49:35.186531,0.646,-0.313,10.131,22.000,128.600,44.200,-0.633,2.961,0.727
2019-06-09-14:49:35.206125,0.653,-0.328,10.057,21.900,129.200,43.500,-0.680,2.945,0.391
2019-06-09-14:49:35.225509,0.646,-0.301,10.129,22.500,129.000,44.900,-0.406,3.117,0.578
2019-06-09-14:49:35.244975,0.665,-0.294,10.093,22.800,130.200,44.700,-0.617,2.898,0.352
2019-06-09-14:49:35.264435,0.658,-0.306,10.105,22.400,128.600,45.300,-0.859,2.961,0.688
2019-06-09-14:49:35.283813,0.629,-0.301,10.162,23.200,129.800,43.900,-0.875,2.664,0.555
2019-06-09-14:49:35.303226,0.701,-0.309,10.114,23.100,129.600,45.100,-0.852,2.930,0.328
2019-06-09-14:49:35.322605,0.622,-0.301,10.131,22.400,129.700,46.200,-1.266,2.992,0.422
2019-06-09-14:49:35.341965,0.672,-0.347,10.071,21.300,130.200,44.300,-0.633,2.844,0.523
2019-06-09-14:49:35.361424,0.634,-0.347,10.119,22.900,129.000,43.700,-0.586,2.734,0.602
2019-06-09-14:49:35.380805,0.653,-0.306,10.064,21.400,128.900,43.100,-0.305,2.836,0.445
2019-06-09-14:49:35.400166,0.656,-0.316,10.105,22.700,128.500,43.300,-0.180,2.734,0.492
2019-06-09-14:49:35.419598,0.670,-0.309,10.069,22.500,129.500,44.600,-0.484,2.727,0.422
2019-06-09-14:49:35.438946,0.632,-0.318,10.105,22.000,129.300,44.300,-0.664,2.961,0.414
2019-06-09-14:49:35.458357,0.660,-0.345,10.057,22.900,129.700,42.800,-0.688,2.773,0.445
2019-06-09-14:49:35.477796,0.658,-0.318,10.138,22.400,128.900,44.200,-0.633,2.648,0.531
2019-06-09-14:49:35.497187,0.677,-0.313,10.081,21.400,128.900,43.700,-0.883,3.016,0.484
2019-06-09-14:49:35.516543,0.644,-0.275,10.067,22.600,129.900,44.000,-0.906,2.820,0.438
2019-06-09-14:49:35.535976,0.677,-0.297,10.107,22.500,128.700,44.300,-0.398,3.078,0.555
2019-06-09-14:49:35.555384,0.675,-0.280,10.131,22.900,129.200,44.000,-0.711,2.836,0.508
2019-06-09-14:49:35.574841,0.653,-0.297,10.095,23.500,128.900,44.100,-0.680,2.578,0.398
2019-06-09-14:49:35.594359,0.682,-0.328,10.055,22.400,128.800,43.100,-0.531,2.906,0.312
2019-06-09-14:49:35.613743,0.663,-0.280,10.091,22.700,128.700,44.700,-0.164,3.031,0.461
2019-06-09-14:49:35.633224,0.663,-0.316,10.074,23.100,129.200,44.400,-0.492,2.906,0.422
2019-06-09-14:49:35.652660,0.648,-0.292,10.083,22.700,129.700,44.300,-0.484,2.906,0.688
2019-06-09-14:49:35.672065,0.668,-0.297,10.169,22.100,129.700,42.900,-0.422,3.203,0.477
2019-06-09-14:49:35.691617,0.653,-0.297,10.112,22.900,129.200,43.900,-0.258,3.250,0.625
2019-06-09-14:49:35.711088,0.644,-0.325,10.129,22.200,128.900,43.300,-0.352,2.797,0.461
2019-06-09-14:49:35.730471,0.644,-0.318,10.179,22.700,129.000,44.600,-0.289,2.844,0.328
2019-06-09-14:49:35.749982,0.668,-0.306,10.107,23.100,129.100,44.300,-0.617,2.961,0.461
2019-06-09-14:49:35.769589,0.656,-0.316,10.146,22.500,129.200,44.300,-0.422,2.820,0.414
2019-06-09-14:49:35.788988,0.648,-0.321,10.153,22.700,129.100,42.900,-0.641,3.141,0.508
2019-06-09-14:49:35.810315,0.660,-0.328,10.105,22.200,128.300,44.600,-0.594,2.672,0.391
2019-06-09-14:49:35.830539,0.660,-0.333,10.158,23.200,128.700,43.300,-0.633,2.969,0.328
2019-06-09-14:49:35.851247,0.653,-0.345,10.126,22.300,128.800,44.600,-0.031,3.000,0.406
2019-06-09-14:49:35.872722,0.675,-0.323,10.148,22.800,130.500,41.500,-0.594,2.617,0.312
2019-06-09-14:49:35.892562,0.675,-0.333,10.110,22.300,129.000,43.800,-0.211,3.156,0.258
2019-06-09-14:49:35.912054,0.651,-0.333,10.122,23.100,129.700,42.900,-0.469,2.906,0.336
2019-06-09-14:49:35.931599,0.665,-0.306,10.141,22.600,128.400,43.200,-0.344,2.688,0.281
2019-06-09-14:49:35.951000,0.670,-0.325,10.122,22.500,128.900,44.200,-0.953,2.773,0.555
2019-06-09-14:49:35.970508,0.646,-0.297,10.141,21.400,128.000,44.500,-0.469,3.188,0.422
2019-06-09-14:49:35.990632,0.663,-0.330,10.131,23.500,130.000,43.600,-0.805,2.898,0.336
2019-06-09-14:49:36.010360,0.653,-0.299,10.105,23.700,129.600,43.600,-0.680,2.727,0.531
2019-06-09-14:49:36.029778,0.653,-0.318,10.126,22.200,128.400,42.500,-0.773,2.797,0.508
2019-06-09-14:49:36.049159,0.646,-0.287,10.100,22.800,128.000,43.800,-1.141,2.945,0.492
2019-06-09-14:49:36.068595,0.660,-0.273,10.083,22.900,128.000,42.300,-0.820,3.117,0.438
2019-06-09-14:49:36.087977,0.653,-0.311,10.098,22.000,128.700,44.600,-1.180,2.992,0.391
2019-06-09-14:49:36.107334,0.634,-0.299,10.079,22.800,128.700,44.500,-0.930,2.820,0.547
2019-06-09-14:49:36.126704,0.646,-0.282,10.126,23.300,128.900,42.300,-0.844,3.078,0.461
2019-06-09-14:49:36.146138,0.692,-0.316,10.114,22.800,129.000,42.400,-0.344,2.820,0.336
2019-06-09-14:49:36.165561,0.636,-0.287,10.112,22.600,128.200,43.000,-0.562,2.758,0.312
2019-06-09-14:49:36.185138,0.672,-0.287,10.093,22.300,128.100,43.100,-0.758,3.031,0.305
2019-06-09-14:49:36.204569,0.663,-0.313,10.124,22.600,128.300,43.600,-0.805,2.836,0.531
2019-06-09-14:49:36.224039,0.651,-0.316,10.119,23.500,127.700,45.500,-0.266,2.922,0.492
2019-06-09-14:49:36.243492,0.653,-0.301,10.107,23.500,128.600,42.500,-0.852,2.734,0.328
2019-06-09-14:49:36.262975,0.680,-0.294,10.129,22.600,128.600,44.200,-0.531,2.875,0.195
2019-06-09-14:49:36.282451,0.672,-0.309,10.064,22.100,128.600,43.700,-0.227,2.734,0.531
2019-06-09-14:49:36.301824,0.656,-0.304,10.126,23.100,129.000,44.200,-0.617,2.703,0.547
2019-06-09-14:49:36.321296,0.670,-0.318,10.150,22.900,128.100,43.200,-0.227,2.820,0.414
2019-06-09-14:49:36.340708,0.680,-0.342,10.095,22.600,129.400,45.400,-0.391,2.734,0.422
2019-06-09-14:49:36.360084,0.658,-0.318,10.165,22.300,128.400,43.500,-0.125,2.773,0.492
2019-06-09-14:49:36.379583,0.670,-0.328,10.155,22.400,127.600,43.700,-0.586,2.820,0.469
2019-06-09-14:49:36.399440,0.658,-0.318,10.117,22.300,128.100,43.500,-0.883,2.641,0.578
2019-06-09-14:49:36.418892,0.644,-0.321,10.138,21.800,128.600,44.300,-0.422,2.836,0.688
2019-06-09-14:49:36.438259,0.646,-0.297,10.134,22.500,129.000,43.200,-0.516,3.227,0.531
2019-06-09-14:49:36.457725,0.656,-0.335,10.155,23.100,129.200,43.900,-0.977,2.883,0.492
2019-06-09-14:49:36.477158,0.665,-0.306,10.119,22.600,128.800,43.400,-0.172,2.836,0.438
2019-06-09-14:49:36.496681,0.670,-0.321,10.112,23.200,128.900,45.200,-0.680,2.883,0.797
2019-06-09-14:49:36.516070,0.653,-0.340,10.150,21.700,128.700,43.500,-0.461,2.703,0.266
2019-06-09-14:49:36.535426,0.651,-0.316,10.093,23.600,129.300,43.500,-0.445,3.094,0.555
2019-06-09-14:49:36.554780,0.644,-0.278,10.004,21.900,128.400,44.500,-0.812,2.898,0.336
2019-06-09-14:49:36.574227,0.651,-0.256,10.055,22.400,129.000,45.300,-0.438,2.773,0.266
2019-06-09-14:49:36.593724,0.629,-0.290,10.045,23.600,129.100,42.800,-0.773,2.883,0.398
2019-06-09-14:49:36.613118,0.646,-0.299,10.035,23.000,128.300,44.400,-0.117,3.055,0.336
2019-06-09-14:49:36.632511,0.639,-0.285,10.071,23.900,129.600,43.000,-0.109,3.117,0.750
2019-06-09-14:49:36.651857,0.641,-0.280,10.057,21.900,129.900,44.600,-0.281,3.047,0.523
2019-06-09-14:49:36.671307,0.665,-0.275,10.086,22.200,128.500,44.700,-0.859,3.078,0.461
2019-06-09-14:49:36.690707,0.663,-0.290,10.067,22.700,128.300,44.800,-0.461,2.641,0.461
2019-06-09-14:49:36.710068,0.653,-0.301,10.057,22.500,128.400,45.200,-0.539,2.930,0.367
2019-06-09-14:49:36.729491,0.648,-0.294,10.102,23.100,128.800,44.300,-0.828,2.703,0.336
2019-06-09-14:49:36.748963,0.670,-0.292,10.079,23.200,128.900,44.500,-0.547,2.797,0.328
2019-06-09-14:49:36.768401,0.656,-0.287,10.074,22.700,127.200,43.700,-0.383,3.047,0.445
2019-06-09-14:49:36.787933,0.665,-0.294,10.124,23.200,127.400,43.400,-0.969,2.945,0.438
2019-06-09-14:49:36.807319,0.687,-0.304,10.102,22.500,127.500,44.600,-0.477,3.094,0.305
2019-06-09-14:49:36.826672,0.675,-0.290,10.091,21.900,127.600,41.700,-0.758,3.070,0.258
2019-06-09-14:49:36.846169,0.653,-0.318,10.102,22.400,128.000,42.600,-0.641,2.859,0.531
2019-06-09-14:49:36.865557,0.660,-0.297,10.095,22.800,127.900,44.000,-1.016,2.672,0.414
2019-06-09-14:49:36.884970,0.639,-0.290,10.124,23.300,127.800,42.400,-0.789,2.945,0.305
2019-06-09-14:49:36.904326,0.663,-0.268,10.026,22.500,128.100,44.600,-0.680,2.906,0.125
2019-06-09-14:49:36.923665,0.651,-0.280,10.081,22.700,128.400,42.600,-0.844,3.055,0.367
2019-06-09-14:49:36.943006,0.665,-0.294,10.021,22.700,127.900,43.400,-0.438,2.906,0.281
2019-06-09-14:49:36.962418,0.636,-0.261,10.040,7.200,98.100,90.200,-0.273,2.984,0.266
2019-06-09-14:49:36.981818,0.615,-0.311,10.067,-15.600,38.900,187.500,-0.469,2.773,0.602
2019-06-09-14:49:37.001362,0.648,-0.251,10.014,2.600,13.000,124.000,-0.617,3.055,0.711
2019-06-09-14:49:37.020752,0.625,-0.254,10.067,6.100,66.800,202.000,-0.695,2.992,0.484
2019-06-09-14:49:37.040129,0.660,-0.268,10.050,14.500,37.600,140.300,-0.594,3.188,0.711
2019-06-09-14:49:37.059590,0.646,-0.249,10.043,6.000,45.100,172.400,-0.391,2.750,0.375
2019-06-09-14:49:37.078947,0.629,-0.263,10.055,16.300,88.000,96.300,-0.656,2.711,0.531
2019-06-09-14:49:37.098367,0.641,-0.263,10.028,18.300,101.300,95.500,-0.539,2.906,0.469
2019-06-09-14:49:37.117817,0.656,-0.275,10.057,34.200,147.900,116.200,-1.055,2.836,0.289
2019-06-09-14:49:37.137176,0.656,-0.275,10.021,-1.000,34.800,79.300,-1.320,2.703,0.461
2019-06-09-14:49:37.156510,0.641,-0.285,10.031,-3.200,42.600,138.300,-0.656,2.859,0.617
2019-06-09-14:49:37.175924,0.632,-0.258,10.062,34.800,129.300,44.400,-1.070,2.734,0.398
2019-06-09-14:49:37.195874,0.641,-0.304,10.016,16.700,67.900,22.100,-0.789,2.555,0.352
2019-06-09-14:49:37.215331,0.636,-0.278,10.055,33.000,146.800,121.000,-0.719,3.016,0.328
2019-06-09-14:49:37.234734,0.653,-0.268,10.038,11.700,104.900,193.000,-0.422,3.055,0.266
2019-06-09-14:49:37.254258,0.670,-0.297,10.019,28.400,114.700,65.600,-0.305,2.859,0.438
2019-06-09-14:49:37.273658,0.675,-0.306,10.083,18.200,85.400,76.200,-0.430,3.031,0.219
2019-06-09-14:49:37.294971,0.639,-0.313,10.114,20.400,103.700,108.300,-0.250,3.102,0.352
2019-06-09-14:49:37.314439,0.660,-0.290,10.086,11.000,83.200,136.200,-0.203,3.070,0.125
2019-06-09-14:49:37.333822,0.672,-0.299,10.095,7.600,62.800,93.600,-0.336,3.102,0.195
2019-06-09-14:49:37.353163,0.648,-0.280,10.114,12.700,82.100,109.000,-0.602,2.992,0.461
2019-06-09-14:49:37.372545,0.651,-0.287,10.074,24.000,102.100,88.500,-0.547,2.961,0.617
2019-06-09-14:49:37.392003,0.651,-0.292,10.081,12.900,67.300,80.600,-0.469,2.812,0.289
2019-06-09-14:49:37.411556,0.648,-0.292,10.107,20.200,87.600,91.300,-0.734,3.031,0.523
2019-06-09-14:49:37.431062,0.625,-0.297,10.047,2.200,56.600,121.000,-0.570,3.055,0.414
2019-06-09-14:49:37.450600,0.641,-0.249,10.071,17.500,104.200,163.800,-0.234,3.203,0.375
2019-06-09-14:49:37.470000,0.672,-0.270,10.071,14.900,88.700,156.500,-0.234,3.203,0.625
2019-06-09-14:49:37.489450,0.653,-0.278,10.057,24.300,90.700,104.000,-0.109,3.141,0.281
2019-06-09-14:49:37.508888,0.634,-0.280,10.083,27.600,121.500,168.100,-0.109,3.016,0.523
2019-06-09-14:49:37.528260,0.675,-0.261,10.024,0.300,25.500,84.500,-0.320,2.711,0.352
2019-06-09-14:49:37.547702,0.663,-0.273,10.064,0.000,24.200,87.900,-0.680,2.969,0.133
2019-06-09-14:49:37.567055,0.648,-0.273,10.033,8.100,31.100,69.500,-0.695,3.031,0.172
2019-06-09-14:49:37.587048,0.658,-0.261,10.059,1.200,51.500,151.000,-0.531,2.836,0.078
2019-06-09-14:49:37.606795,0.629,-0.268,10.059,17.500,76.900,133.200,-0.539,2.898,0.570
2019-06-09-14:49:37.626276,0.644,-0.270,10.035,4.300,44.500,127.400,-0.461,2.836,0.367
2019-06-09-14:49:37.645680,0.653,-0.278,10.059,6.600,36.500,94.500,-0.664,2.906,0.508
