Time,Acceleration X (m/s^2),Acceleration Y (m/s^2),Acceleration Z (m/s^2),Magnetometer X (uTesla), Magnetometer Y (uTesla)  , Magnetometer Z (uTesla),Gyroscope X (radians/s), Gyroscope Y (radians/s), Gyroscope Z (radians/s)
2019-06-09-14:58:55.932705,0.723,-0.294,10.193,21.100,40.100,105.200,-0.328,2.672,0.336
2019-06-09-14:58:55.948508,0.634,-0.292,10.138,14.500,9.100,66.100,-0.469,2.836,0.414
2019-06-09-14:58:55.964170,0.663,-0.292,10.179,16.100,14.300,76.000,-0.414,2.969,0.234
2019-06-09-14:58:55.979808,0.684,-0.306,10.105,24.700,80.200,173.400,-0.852,2.930,0.281
2019-06-09-14:58:55.995484,0.651,-0.299,10.153,24.400,84.600,174.600,-0.391,2.945,0.445
2019-06-09-14:58:56.011100,0.644,-0.349,10.055,23.100,112.500,233.400,-0.211,3.016,0.445
2019-06-09-14:58:56.026718,0.656,-0.287,10.119,23.100,117.800,239.900,-0.922,2.984,0.414
2019-06-09-14:58:56.042331,0.708,-0.316,10.122,-16.000,18.500,145.000,-0.633,2.984,0.484
2019-06-09-14:58:56.057939,0.689,-0.345,10.093,3.500,-30.100,31.000,-0.680,2.820,0.289
2019-06-09-14:58:56.073562,0.648,-0.309,10.241,3.200,-30.300,29.900,-0.461,2.734,0.352
2019-06-09-14:58:56.089172,0.663,-0.325,10.031,12.000,138.200,311.100,-0.516,2.969,0.555
2019-06-09-14:58:56.104789,0.660,-0.273,10.081,13.800,137.700,310.300,-0.734,3.273,0.539
2019-06-09-14:58:56.120447,0.644,-0.316,10.069,3.300,-28.900,30.000,-0.734,2.930,0.414
2019-06-09-14:58:56.136101,0.701,-0.330,10.208,1.000,-32.800,23.800,-0.812,2.883,0.438
2019-06-09-14:58:56.151716,0.711,-0.318,10.165,2.400,-31.100,24.100,-0.500,3.133,0.367
2019-06-09-14:58:56.167344,0.668,-0.342,10.177,2.400,-32.500,22.100,-0.586,2.875,0.445
2019-06-09-14:58:56.182989,0.644,-0.299,10.098,3.200,-30.200,22.700,-0.930,3.102,0.328
2019-06-09-14:58:56.198620,0.641,-0.246,10.045,1.500,-34.500,19.600,-0.695,3.047,0.523
2019-06-09-14:58:56.214250,0.684,-0.333,10.229,14.300,4.900,64.900,-1.133,2.906,0.625
2019-06-09-14:58:56.229882,0.644,-0.352,10.019,17.900,138.300,305.200,-0.781,2.883,0.375
2019-06-09-14:58:56.245573,0.656,-0.256,10.059,-39.200,-23.400,106.400,-0.172,2.727,0.469
2019-06-09-14:58:56.261205,0.555,-0.304,9.976,-23.700,89.500,304.200,-0.445,2.672,0.391
2019-06-09-14:58:56.276835,0.677,-0.373,10.081,-13.700,85.700,280.800,-0.422,2.969,0.469
2019-06-09-14:58:56.292461,0.629,-0.371,10.114,-35.700,-18.900,107.400,-0.289,2.711,0.195
2019-06-09-14:58:56.308131,0.663,-0.359,10.138,-38.300,-27.100,97.300,-0.469,2.922,0.672
2019-06-09-14:58:56.327471,0.675,-0.297,10.062,24.400,118.500,251.800,-0.883,3.203,0.344
2019-06-09-14:58:56.346895,0.605,-0.282,9.992,-8.600,93.800,285.200,-0.688,2.820,0.414
2019-06-09-14:58:56.366409,0.663,-0.237,10.031,8.000,92.000,233.000,-0.398,2.773,0.648
2019-06-09-14:58:56.385993,0.605,-0.333,9.968,-32.200,33.200,232.900,-0.531,2.844,0.602
2019-06-09-14:58:56.405445,0.591,-0.280,9.930,-17.800,107.900,324.800,-0.773,2.789,0.234
2019-06-09-14:58:56.424972,0.610,-0.301,10.086,-37.400,-17.400,110.600,-1.031,2.664,0.602
2019-06-09-14:58:56.444387,0.653,-0.313,10.071,23.200,61.100,135.200,-0.594,2.820,0.258
2019-06-09-14:58:56.463795,0.646,-0.285,10.045,13.800,3.200,62.300,-0.766,3.156,0.391
2019-06-09-14:58:56.483228,0.639,-0.230,10.165,18.200,15.100,75.600,-0.492,2.906,0.445
2019-06-09-14:58:56.503209,0.641,-0.270,10.031,13.100,133.000,302.800,-0.680,2.648,0.484
2019-06-09-14:58:56.522926,0.694,-0.354,10.107,-4.800,-39.600,27.900,-0.539,2.883,0.367
2019-06-09-14:58:56.542402,0.646,-0.321,10.165,16.300,15.300,75.200,-0.836,2.797,0.469
2019-06-09-14:58:56.561852,0.682,-0.306,10.177,-34.600,-32.800,71.100,-0.711,2.812,0.641
2019-06-09-14:58:56.581375,0.627,-0.304,10.071,-27.400,80.300,296.100,-0.594,2.969,0.328
2019-06-09-14:58:56.600803,0.663,-0.311,10.143,19.400,27.200,91.400,-0.539,2.969,0.242
2019-06-09-14:58:56.620271,0.675,-0.261,10.160,19.700,27.600,89.600,-0.539,2.969,0.367
2019-06-09-14:58:56.639737,0.670,-0.266,10.148,20.000,111.300,244.300,-0.680,2.789,0.578
2019-06-09-14:58:56.659154,0.665,-0.251,10.102,21.000,33.500,101.100,-0.656,2.875,0.602
2019-06-09-14:58:56.678562,0.687,-0.304,10.119,23.700,40.600,114.300,-0.164,3.102,0.484
2019-06-09-14:58:56.699970,0.625,-0.280,10.177,-9.800,-43.600,22.400,-0.656,2.844,0.352
2019-06-09-14:58:56.719730,0.598,-0.333,10.167,-2.500,-38.000,20.900,-0.609,2.578,0.445
2019-06-09-14:58:56.739201,0.627,-0.280,10.119,-41.300,-16.300,126.700,-0.664,2.797,0.508
2019-06-09-14:58:56.758609,0.660,-0.244,10.098,-19.600,-47.700,21.100,-0.828,2.984,0.547
2019-06-09-14:58:56.778016,0.586,-0.263,9.961,-25.500,94.300,312.800,-0.414,2.930,0.211
2019-06-09-14:58:56.797419,0.668,-0.313,10.016,-13.800,-46.800,17.600,-0.734,2.844,0.617
2019-06-09-14:58:56.816831,0.648,-0.313,10.119,-38.000,-35.100,77.400,-1.266,2.945,0.391
2019-06-09-14:58:56.836284,0.627,-0.292,10.150,-40.600,-21.300,113.100,-0.586,2.617,0.242
2019-06-09-14:58:56.855753,0.682,-0.244,10.091,8.000,-19.700,37.300,-0.766,3.008,0.484
2019-06-09-14:58:56.875286,0.658,-0.278,10.016,19.000,126.300,277.900,-0.648,3.070,0.547
2019-06-09-14:58:56.894789,0.620,-0.273,10.012,16.600,138.000,302.100,-0.484,2.898,0.508
2019-06-09-14:58:56.914637,0.651,-0.290,10.033,-15.400,-49.700,19.800,-0.578,3.180,0.445
2019-06-09-14:58:56.934376,0.692,-0.239,10.059,-14.500,-50.800,14.900,-0.609,2.875,0.367
2019-06-09-14:58:56.953860,0.660,-0.258,10.227,11.800,-17.900,36.600,-0.547,2.844,0.398
2019-06-09-14:58:56.973291,0.632,-0.282,10.086,12.400,-16.900,37.700,-0.414,2.617,0.648
2019-06-09-14:58:56.992719,0.665,-0.266,10.038,18.000,0.500,53.800,-0.695,3.297,0.422
2019-06-09-14:58:57.012131,0.581,-0.306,10.055,-35.100,38.200,244.900,-0.422,3.141,0.414
2019-06-09-14:58:57.031727,0.668,-0.280,10.129,23.200,30.000,92.600,-0.438,2.875,0.617
2019-06-09-14:58:57.051262,0.668,-0.306,10.019,25.600,41.100,107.500,-0.359,3.008,0.531
2019-06-09-14:58:57.070697,0.668,-0.294,10.174,-26.500,-51.700,30.100,-0.609,2.961,0.625
2019-06-09-14:58:57.090109,0.622,-0.299,10.057,-12.600,117.800,340.300,-0.680,2.773,0.602
2019-06-09-14:58:57.109608,0.677,-0.325,10.081,-21.000,-53.800,19.100,-0.516,2.789,0.336
2019-06-09-14:58:57.129101,0.668,-0.347,10.100,17.200,0.400,54.300,-0.625,3.047,0.594
2019-06-09-14:58:57.148631,0.665,-0.318,10.153,-32.700,-50.300,40.800,-0.023,2.805,0.453
2019-06-09-14:58:57.168064,0.692,-0.299,10.172,10.200,-21.200,33.000,-0.328,2.836,0.555
2019-06-09-14:58:57.187580,0.675,-0.359,10.057,26.200,117.500,245.800,-0.594,2.844,0.555
2019-06-09-14:58:57.206995,0.629,-0.333,10.064,8.200,119.200,293.000,-0.875,2.844,0.352
2019-06-09-14:58:57.226414,0.663,-0.273,10.179,19.400,52.300,136.900,-0.641,2.797,0.414
2019-06-09-14:58:57.245931,0.672,-0.347,10.083,-20.300,-40.100,47.200,-0.422,2.930,0.547
2019-06-09-14:58:57.265366,0.644,-0.311,10.081,-29.500,-52.500,39.700,-0.703,2.906,0.375
2019-06-09-14:58:57.284795,0.663,-0.215,10.124,2.200,-45.800,14.100,-0.445,3.016,0.438
2019-06-09-14:58:57.304325,0.610,-0.256,10.019,18.800,133.300,286.400,-0.656,2.820,0.641
2019-06-09-14:58:57.323760,0.648,-0.318,10.091,12.600,-3.300,51.200,-0.656,2.945,0.445
2019-06-09-14:58:57.343218,0.644,-0.292,10.033,21.200,127.000,268.000,-0.352,2.758,0.305
2019-06-09-14:58:57.362775,0.653,-0.268,10.107,20.100,47.900,115.800,-0.758,2.875,0.547
2019-06-09-14:58:57.382346,0.644,-0.301,10.088,10.600,-6.600,52.000,-0.508,2.836,0.781
2019-06-09-14:58:57.401815,0.660,-0.275,10.129,11.200,-5.900,53.900,-0.625,3.055,0.492
2019-06-09-14:58:57.421332,0.622,-0.273,10.076,-29.800,-38.900,48.900,-0.500,3.070,0.484
2019-06-09-14:58:57.440756,0.601,-0.278,9.899,-30.300,70.800,287.600,-0.875,2.703,0.422
2019-06-09-14:58:57.460232,0.577,-0.311,10.114,-39.700,-26.000,96.800,-0.492,3.297,0.555
2019-06-09-14:58:57.479652,0.613,-0.261,9.949,-18.000,112.200,325.100,-0.344,2.648,0.508
2019-06-09-14:58:57.499049,0.641,-0.263,9.923,-16.400,114.700,324.500,-0.516,2.703,0.594
2019-06-09-14:58:57.518464,0.677,-0.273,9.961,-23.200,117.000,342.100,-0.570,2.812,0.336
2019-06-09-14:58:57.537913,0.692,-0.333,10.169,-45.000,23.800,217.600,-0.664,2.859,0.422
2019-06-09-14:58:57.557368,0.646,-0.337,10.138,29.200,125.900,250.300,-0.680,2.836,0.469
2019-06-09-14:58:57.576771,0.668,-0.354,10.050,-2.300,137.000,334.000,-0.461,2.820,0.461
2019-06-09-14:58:57.596171,0.668,-0.287,10.146,1.500,-28.500,32.000,-0.836,2.672,0.602
2019-06-09-14:58:57.615649,0.680,-0.380,10.122,4.100,-24.200,33.800,-0.805,2.820,0.484
2019-06-09-14:58:57.635128,0.658,-0.357,10.136,-25.100,-43.700,33.600,-0.875,2.750,0.469
2019-06-09-14:58:57.654593,0.639,-0.299,10.007,-14.500,117.600,328.600,-0.773,2.773,0.570
2019-06-09-14:58:57.674124,0.682,-0.340,10.160,-38.300,-19.500,132.900,-0.547,2.883,0.422
2019-06-09-14:58:57.693554,0.672,-0.328,10.105,-36.700,0.400,175.100,-0.617,2.820,0.523
2019-06-09-14:58:57.713516,0.653,-0.325,10.119,25.700,106.900,221.500,-0.750,2.664,0.641
2019-06-09-14:58:57.733030,0.677,-0.297,10.110,28.400,103.300,217.200,-0.703,2.922,0.242
2019-06-09-14:58:57.752617,0.660,-0.261,10.035,29.900,92.300,197.000,-0.344,2.945,0.305
2019-06-09-14:58:57.772379,0.670,-0.273,10.119,-3.500,-47.200,13.600,-0.523,3.047,0.555
2019-06-09-14:58:57.791871,0.622,-0.309,9.992,-18.200,101.400,325.700,-0.656,2.625,0.352
2019-06-09-14:58:57.811491,0.663,-0.280,9.935,-17.000,104.000,328.500,-0.758,2.969,0.336
2019-06-09-14:58:57.831025,0.641,-0.328,10.086,-25.500,-51.100,34.300,-0.414,2.930,0.422
2019-06-09-14:58:57.850528,0.694,-0.282,10.074,28.700,109.400,232.900,-0.570,2.758,0.688
2019-06-09-14:58:57.870132,0.663,-0.290,10.079,28.800,109.500,233.400,-0.672,3.250,0.453
2019-06-09-14:58:57.889670,0.656,-0.263,10.000,28.400,108.900,231.800,-0.305,2.961,0.461
2019-06-09-14:58:57.909167,0.656,-0.306,10.067,-4.300,-47.700,14.600,-0.422,2.617,0.258
2019-06-09-14:58:57.928595,0.598,-0.304,10.064,-38.700,13.100,196.300,-0.570,2.797,0.266
2019-06-09-14:58:57.948067,0.627,-0.335,10.050,-30.300,55.600,275.500,-0.508,2.758,0.547
2019-06-09-14:58:57.967685,0.636,-0.297,10.002,-34.400,37.400,242.000,-0.391,2.883,0.555
2019-06-09-14:58:57.987124,0.620,-0.318,10.035,-30.100,50.200,269.200,-0.641,2.789,0.508
2019-06-09-14:58:58.006551,0.658,-0.342,10.088,-31.000,40.800,255.200,-0.688,2.711,0.438
2019-06-09-14:58:58.026049,0.675,-0.316,10.153,24.900,48.600,121.900,-0.445,2.820,0.469
2019-06-09-14:58:58.045491,0.684,-0.325,10.071,24.100,45.800,120.600,-0.578,3.070,0.570
2019-06-09-14:58:58.064960,0.646,-0.304,10.146,26.700,100.700,215.400,-0.547,2.844,0.422
2019-06-09-14:58:58.090885,0.694,-0.323,10.076,6.800,118.200,62.900,-0.492,2.617,0.422
2019-06-09-14:58:58.111053,0.625,-0.313,10.079,6.600,117.100,61.200,-0.875,2.898,0.422
2019-06-09-14:58:58.130691,0.617,-0.256,9.995,7.000,117.900,62.800,-0.688,2.961,0.422
2019-06-09-14:58:58.150147,0.636,-0.299,10.045,6.400,118.500,61.400,-1.023,2.859,0.578
2019-06-09-14:58:58.169749,0.668,-0.237,10.019,6.600,118.400,64.100,-0.133,3.094,0.352
2019-06-09-14:58:58.198458,0.620,-0.294,10.064,7.700,118.300,63.700,-0.930,2.844,0.242
2019-06-09-14:58:58.218047,0.706,-0.321,10.105,6.900,118.000,61.800,-0.688,2.797,0.398
2019-06-09-14:58:58.237475,0.653,-0.378,10.131,7.100,117.400,62.100,-0.367,2.906,0.445
2019-06-09-14:58:58.256956,0.617,-0.218,10.138,7.300,117.800,63.000,-0.617,2.672,0.352
2019-06-09-14:58:58.276474,0.672,-0.287,10.012,6.500,117.800,62.800,-0.469,2.922,0.398
2019-06-09-14:58:58.295978,0.627,-0.294,10.095,8.100,116.000,57.800,0.008,3.203,0.477
2019-06-09-14:58:58.315393,0.625,-0.268,10.102,7.500,115.600,60.000,-0.469,2.773,0.422
2019-06-09-14:58:58.334797,0.646,-0.292,10.050,7.400,115.700,60.300,-0.711,2.688,0.648
2019-06-09-14:58:58.354318,0.596,-0.311,10.129,7.600,115.400,57.800,-0.445,2.883,0.219
2019-06-09-14:58:58.374106,0.687,-0.309,10.093,7.800,115.900,58.700,-0.664,2.820,0.688
2019-06-09-14:58:58.393567,0.665,-0.337,10.091,8.200,115.800,59.200,-0.977,2.969,0.156
2019-06-09-14:58:58.412992,0.656,-0.318,10.107,8.000,116.500,58.800,-0.422,2.836,0.398
2019-06-09-14:58:58.432423,0.670,-0.328,10.150,9.100,115.500,58.800,-0.500,3.008,0.492
2019-06-09-14:58:58.451831,0.706,-0.323,10.129,8.000,116.100,59.600,-1.008,3.078,0.281
2019-06-09-14:58:58.471402,0.651,-0.349,10.093,8.700,116.100,58.800,-0.633,2.945,0.461
2019-06-09-14:58:58.490828,0.632,-0.306,10.146,9.000,114.900,59.600,-0.570,2.586,0.461
2019-06-09-14:58:58.510237,0.694,-0.337,10.112,9.100,115.000,60.100,-0.656,2.969,0.281
2019-06-09-14:58:58.529767,0.658,-0.366,10.050,8.900,115.800,58.300,-0.562,2.750,0.352
2019-06-09-14:58:58.549193,0.675,-0.335,10.177,8.600,114.500,59.400,-0.320,2.836,0.664
2019-06-09-14:58:58.568588,0.670,-0.354,10.177,8.600,115.200,59.600,-0.898,2.930,0.523
2019-06-09-14:58:58.588060,0.668,-0.359,10.093,8.900,115.500,60.800,-0.719,3.180,0.445
2019-06-09-14:58:58.607560,0.646,-0.330,10.179,8.500,115.600,59.400,-0.453,3.227,0.250
2019-06-09-14:58:58.627027,0.689,-0.347,10.138,8.500,115.400,59.400,-0.562,2.773,0.570
2019-06-09-14:58:58.646448,0.672,-0.342,10.141,9.200,116.300,59.000,-0.234,3.016,0.414
2019-06-09-14:58:58.665934,0.636,-0.256,10.126,7.400,115.800,59.000,-0.430,3.164,0.625
2019-06-09-14:58:58.685417,0.639,-0.251,10.062,8.400,115.800,58.400,-0.797,3.094,0.305
2019-06-09-14:58:58.704891,0.653,-0.270,9.990,8.100,115.300,58.200,-0.594,2.984,0.469
2019-06-09-14:58:58.724334,0.613,-0.268,10.057,9.000,114.700,59.200,-0.758,2.727,0.617
2019-06-09-14:58:58.743749,0.660,-0.263,10.038,8.800,115.600,58.900,-0.977,2.711,0.422
2019-06-09-14:58:58.763177,0.660,-0.275,10.038,8.700,115.800,59.600,-0.641,2.641,0.625
2019-06-09-14:58:58.782643,0.644,-0.287,10.074,7.900,116.100,59.200,-0.570,2.883,0.352
2019-06-09-14:58:58.802062,0.636,-0.275,10.069,8.000,115.300,60.300,-0.875,2.773,0.492
2019-06-09-14:58:58.821561,0.653,-0.287,10.079,8.500,115.300,59.700,-0.617,2.750,0.266
2019-06-09-14:58:58.840960,0.653,-0.280,10.031,8.100,116.100,61.000,-0.609,2.797,0.375
2019-06-09-14:58:58.860439,0.627,-0.282,10.031,8.600,115.400,59.000,-0.352,2.797,0.547
2019-06-09-14:58:58.879952,0.644,-0.278,10.083,9.400,115.000,59.800,-0.383,3.133,0.492
2019-06-09-14:58:58.899617,0.646,-0.301,10.069,8.300,115.700,59.500,-0.859,2.844,0.414
2019-06-09-14:58:58.919535,0.639,-0.318,10.059,8.700,115.200,59.200,-0.180,2.945,0.391
2019-06-09-14:58:58.939044,0.658,-0.328,10.083,8.000,115.500,59.800,-0.703,2.898,0.172
2019-06-09-14:58:58.958477,0.663,-0.323,10.074,7.600,115.000,60.100,-0.922,2.820,0.508
2019-06-09-14:58:58.977932,0.663,-0.311,10.091,9.000,115.300,60.200,-0.641,2.906,0.289
2019-06-09-14:58:58.997451,0.660,-0.321,10.102,7.800,115.800,61.100,-0.789,2.883,0.211
2019-06-09-14:58:59.016920,0.665,-0.330,10.119,7.500,114.600,58.100,-0.445,2.820,0.336
2019-06-09-14:58:59.037597,0.677,-0.311,10.136,8.500,114.800,60.500,-0.516,3.047,0.398
2019-06-09-14:58:59.062822,0.670,-0.299,10.102,8.100,114.600,59.700,-0.586,2.750,0.492
2019-06-09-14:58:59.082749,0.672,-0.313,10.119,8.100,115.600,59.200,-0.844,3.203,0.094
2019-06-09-14:58:59.102382,0.668,-0.318,10.134,8.400,114.500,60.400,-0.133,2.711,0.547
2019-06-09-14:58:59.121886,0.663,-0.328,10.150,7.100,114.600,61.200,-0.531,2.758,0.398
2019-06-09-14:58:59.141430,0.675,-0.316,10.110,8.600,115.700,60.100,-0.633,2.961,0.461
2019-06-09-14:58:59.160909,0.651,-0.330,10.112,8.800,115.600,59.800,-0.438,2.898,0.352
2019-06-09-14:58:59.180371,0.663,-0.311,10.165,8.200,115.700,58.900,-0.375,2.922,0.414
2019-06-09-14:58:59.199925,0.692,-0.352,10.179,8.100,115.800,59.100,-0.594,2.898,0.391
2019-06-09-14:58:59.219447,0.677,-0.347,10.126,8.800,115.500,60.400,-0.758,2.906,0.367
2019-06-09-14:58:59.238862,0.663,-0.352,10.158,9.000,115.500,58.900,-0.602,3.008,0.570
2019-06-09-14:58:59.258293,0.684,-0.345,10.124,7.800,115.600,60.500,-0.898,2.672,0.531
2019-06-09-14:58:59.277806,0.680,-0.354,10.126,8.400,115.500,58.500,-0.461,2.773,0.594
2019-06-09-14:58:59.297289,0.651,-0.321,10.126,8.200,115.800,59.400,-0.664,2.859,0.234
2019-06-09-14:58:59.317192,0.665,-0.318,10.155,8.200,115.800,58.300,-0.719,3.008,0.648
2019-06-09-14:58:59.336686,0.675,-0.335,10.131,7.600,114.900,59.100,-1.055,3.031,0.523
2019-06-09-14:58:59.356174,0.660,-0.309,10.112,7.300,116.800,58.500,-1.000,2.906,0.398
2019-06-09-14:58:59.375704,0.658,-0.337,10.165,7.900,115.500,59.700,-0.539,2.945,0.602
2019-06-09-14:58:59.395174,0.641,-0.282,10.129,7.300,115.500,60.400,-0.281,2.992,0.484
2019-06-09-14:58:59.414616,0.636,-0.266,10.071,9.100,116.300,58.900,-0.781,2.883,0.773
2019-06-09-14:58:59.434131,0.653,-0.273,10.047,8.000,116.000,60.600,-0.633,2.812,0.352
2019-06-09-14:58:59.453583,0.644,-0.270,10.074,7.500,115.100,60.500,-0.812,2.945,0.234
2019-06-09-14:58:59.473079,0.641,-0.266,10.064,7.700,115.900,59.100,-0.836,2.961,0.508
2019-06-09-14:58:59.492490,0.660,-0.282,10.047,8.800,116.200,60.300,-0.609,2.789,0.625
2019-06-09-14:58:59.511981,0.636,-0.299,10.088,8.100,114.800,60.100,-0.570,3.008,0.422
2019-06-09-14:58:59.531583,0.644,-0.301,10.059,8.000,115.400,59.000,-0.594,2.945,0.242
2019-06-09-14:58:59.551037,0.658,-0.275,10.081,8.200,115.500,60.000,-0.344,2.898,0.547
2019-06-09-14:58:59.570450,0.651,-0.297,10.107,8.100,114.400,60.100,-0.516,2.797,0.492
2019-06-09-14:58:59.589858,0.656,-0.294,10.098,7.900,114.800,59.800,-0.281,3.094,0.570
2019-06-09-14:58:59.609426,0.668,-0.313,10.114,8.800,115.100,60.000,-0.734,2.875,0.438
2019-06-09-14:58:59.628918,0.670,-0.328,10.131,8.700,114.000,60.200,-0.547,2.883,0.391
2019-06-09-14:58:59.648350,0.658,-0.301,10.098,8.000,114.700,59.800,-0.602,3.078,0.445
2019-06-09-14:58:59.667852,0.653,-0.333,10.134,9.200,115.200,58.600,-0.492,2.945,0.367
2019-06-09-14:58:59.687281,0.711,-0.325,10.114,7.800,114.900,60.000,-0.688,2.883,0.461
2019-06-09-14:58:59.708867,0.680,-0.323,10.129,7.500,115.100,59.400,-0.656,2.922,0.188
2019-06-09-14:58:59.728378,0.672,-0.357,10.122,8.400,115.300,59.800,-0.469,2.703,0.547
2019-06-09-14:58:59.747879,0.668,-0.337,10.141,8.300,115.700,60.700,-0.547,2.773,0.648
2019-06-09-14:58:59.767298,0.694,-0.347,10.158,8.000,114.900,60.600,-0.414,2.898,0.492
2019-06-09-14:58:59.786780,0.672,-0.337,10.141,7.700,115.000,59.800,-0.461,2.844,0.438
2019-06-09-14:58:59.806234,0.670,-0.342,10.138,8.400,114.600,59.700,-0.617,3.016,0.484
2019-06-09-14:58:59.825660,0.689,-0.340,10.160,7.900,115.400,59.800,-0.898,2.836,0.188
2019-06-09-14:58:59.845061,0.668,-0.337,10.114,9.200,115.000,59.800,-0.789,2.836,0.242
2019-06-09-14:58:59.864578,0.680,-0.349,10.122,8.500,113.700,59.800,-0.789,3.133,0.391
2019-06-09-14:58:59.884164,0.641,-0.273,10.136,8.600,115.800,59.300,-0.680,2.961,0.438
2019-06-09-14:58:59.903620,0.613,-0.278,10.033,9.400,113.600,59.700,-0.711,2.836,0.328
2019-06-09-14:58:59.923146,0.656,-0.280,10.021,8.700,115.300,59.800,-0.805,2.844,0.398
2019-06-09-14:58:59.942575,0.658,-0.270,10.067,8.400,115.000,59.900,-0.438,2.961,0.688
2019-06-09-14:58:59.962009,0.641,-0.280,10.052,8.600,115.300,60.800,-0.758,2.898,0.375
2019-06-09-14:58:59.981676,0.627,-0.268,10.062,8.600,114.700,61.800,-0.836,2.859,0.312
2019-06-09-14:59:00.001221,0.644,-0.282,10.071,8.700,115.200,60.900,-0.945,2.789,0.484
2019-06-09-14:59:00.020737,0.641,-0.273,10.057,7.800,114.700,60.800,-0.789,2.844,0.148
2019-06-09-14:59:00.040185,0.653,-0.297,10.031,8.200,115.200,60.400,-0.781,2.844,0.039
2019-06-09-14:59:00.059691,0.663,-0.294,10.081,7.900,115.900,61.100,-0.555,3.250,0.398
2019-06-09-14:59:00.079110,0.653,-0.287,10.088,8.000,115.200,60.500,-0.469,2.992,0.398
2019-06-09-14:59:00.098572,0.663,-0.294,10.095,7.900,115.100,58.300,-0.898,2.711,0.711
2019-06-09-14:59:00.118587,0.641,-0.297,10.047,7.900,116.900,60.200,-0.469,2.961,0.398
2019-06-09-14:59:00.138150,0.665,-0.287,10.095,7.600,116.200,58.800,-1.031,2.797,0.594
2019-06-09-14:59:00.157893,0.675,-0.313,10.122,8.100,115.200,60.000,-0.109,3.094,0.305
2019-06-09-14:59:00.177360,0.656,-0.306,10.091,8.000,115.000,60.500,-0.539,2.789,0.281
2019-06-09-14:59:00.196779,0.656,-0.311,10.105,7.900,115.300,59.600,-0.773,2.797,0.391
2019-06-09-14:59:00.216206,0.656,-0.323,10.093,9.000,116.100,60.600,-0.758,3.242,0.195
2019-06-09-14:59:00.235632,0.660,-0.313,10.114,8.300,115.600,59.300,-0.602,3.164,0.375
2019-06-09-14:59:00.255073,0.656,-0.309,10.155,8.800,115.600,60.800,-0.617,2.859,0.570
2019-06-09-14:59:00.274483,0.627,-0.301,10.124,12.700,116.500,117.500,-0.633,2.836,0.492
2019-06-09-14:59:00.294008,0.653,-0.328,10.146,11.500,85.300,44.300,-0.758,2.648,0.508
2019-06-09-14:59:00.313421,0.641,-0.266,10.110,-15.100,36.700,118.900,-0.727,2.758,0.414
2019-06-09-14:59:00.332928,0.639,-0.273,10.062,12.200,88.100,62.200,-0.852,2.672,0.289
2019-06-09-14:59:00.352416,0.653,-0.273,10.050,-5.700,56.500,119.300,-0.727,2.758,0.422
2019-06-09-14:59:00.372001,0.651,-0.285,10.052,12.300,96.200,78.400,-0.609,2.672,0.461
2019-06-09-14:59:00.391668,0.617,-0.268,10.052,-7.700,56.900,137.100,-0.555,3.016,0.352
2019-06-09-14:59:00.411204,0.648,-0.266,10.014,5.000,82.500,102.300,-0.336,3.047,0.445
2019-06-09-14:59:00.430705,0.627,-0.282,10.059,-4.300,69.900,144.700,-0.852,2.672,0.281
2019-06-09-14:59:00.450141,0.613,-0.266,10.038,5.600,97.200,152.300,-0.641,2.672,0.258
2019-06-09-14:59:00.469632,0.629,-0.268,10.045,-4.100,74.000,144.400,-0.492,2.711,0.367
2019-06-09-14:59:00.489042,0.651,-0.285,10.035,4.300,71.700,117.900,-0.492,2.969,0.414
2019-06-09-14:59:00.508607,0.601,-0.261,10.038,-0.300,74.700,148.900,-0.680,2.883,0.508
2019-06-09-14:59:00.528599,0.627,-0.275,10.050,10.000,74.400,86.800,-0.617,2.641,0.352
2019-06-09-14:59:00.548111,0.658,-0.275,10.045,1.200,63.800,118.500,-0.609,2.969,0.492
2019-06-09-14:59:00.567628,0.613,-0.273,10.031,-0.600,59.400,117.200,-0.352,2.703,0.312
2019-06-09-14:59:00.587046,0.641,-0.294,10.055,17.100,109.300,131.100,-0.352,2.930,0.484
2019-06-09-14:59:00.606467,0.670,-0.299,10.033,-16.000,44.800,193.200,-0.703,2.898,0.266
2019-06-09-14:59:00.626042,0.656,-0.280,10.091,-16.200,9.200,98.800,-0.688,2.992,0.469
2019-06-09-14:59:00.645579,0.608,-0.285,10.047,10.000,53.500,67.100,-0.773,2.516,0.570
2019-06-09-14:59:00.665011,0.648,-0.309,10.047,6.400,105.900,206.200,-0.664,3.055,0.398
2019-06-09-14:59:00.684425,0.646,-0.282,10.088,3.400,75.400,158.800,-0.133,2.930,0.664
2019-06-09-14:59:00.703887,0.656,-0.275,10.059,-12.500,28.300,127.600,-0.930,2.898,0.445
2019-06-09-14:59:00.723377,0.663,-0.292,10.088,-4.000,54.000,151.700,-0.641,2.992,0.242
2019-06-09-14:59:00.742859,0.644,-0.299,10.105,0.300,64.000,147.100,-0.594,3.227,0.578
2019-06-09-14:59:00.762378,0.636,-0.297,10.100,-15.700,27.400,137.700,-0.656,2.688,0.312
2019-06-09-14:59:00.781959,0.677,-0.273,10.079,-10.800,16.600,106.100,-0.836,2.883,0.055
2019-06-09-14:59:00.801500,0.648,-0.294,10.014,-4.800,55.300,164.000,-0.789,2.812,0.555
2019-06-09-14:59:00.821017,0.632,-0.270,10.093,-2.300,73.100,187.000,-0.758,2.797,0.438
2019-06-09-14:59:00.840548,0.658,-0.268,10.062,-1.200,57.700,156.500,-0.703,2.625,0.422
2019-06-09-14:59:00.860165,0.668,-0.285,10.055,1.500,72.900,169.400,-0.227,3.031,0.438
2019-06-09-14:59:00.879736,0.636,-0.275,10.019,-6.300,51.400,167.600,-0.547,2.859,0.172
2019-06-09-14:59:00.899177,0.629,-0.285,10.019,-24.100,49.700,237.800,-0.859,2.734,0.484
2019-06-09-14:59:00.918597,0.668,-0.266,10.021,-16.100,12.900,118.000,-0.453,3.047,0.445
2019-06-09-14:59:00.938015,0.629,-0.273,10.031,7.000,50.200,94.000,-0.445,3.008,0.336
2019-06-09-14:59:00.957657,0.639,-0.249,10.033,-17.000,14.600,110.200,-0.508,2.969,0.445
2019-06-09-14:59:00.977093,0.622,-0.280,10.093,-21.200,15.900,134.000,-0.258,3.008,0.125
2019-06-09-14:59:00.996502,0.653,-0.287,10.028,-23.200,4.100,120.700,-0.227,2.844,0.258
2019-06-09-14:59:01.015982,0.613,-0.282,9.997,11.400,119.100,222.300,-0.547,2.906,0.336
2019-06-09-14:59:01.035396,0.639,-0.280,10.067,-17.200,73.400,248.400,-0.570,2.344,0.305
2019-06-09-14:59:01.054879,0.627,-0.280,10.064,-20.900,58.100,234.000,-0.617,2.906,0.594
2019-06-09-14:59:01.074344,0.613,-0.256,10.014,-27.000,22.600,176.600,-0.477,3.008,0.492
2019-06-09-14:59:01.093752,0.665,-0.270,10.014,-9.100,-12.400,30.800,-0.203,3.141,0.242
2019-06-09-14:59:01.113165,0.648,-0.270,10.016,13.700,83.400,143.600,-0.781,2.922,0.422
2019-06-09-14:59:01.132646,0.646,-0.282,10.035,-10.800,75.600,230.900,-0.156,2.812,0.594
2019-06-09-14:59:01.152131,0.680,-0.333,10.028,-6.200,67.400,200.500,-0.344,2.836,0.367
2019-06-09-14:59:01.171681,0.689,-0.316,10.100,-9.100,30.300,130.800,-0.078,2.812,0.336
2019-06-09-14:59:01.193197,0.646,-0.311,10.071,15.500,72.400,116.300,-0.461,2.961,0.570
2019-06-09-14:59:01.212721,0.658,-0.292,10.076,1.900,65.700,155.300,-0.703,2.930,0.328
2019-06-09-14:59:01.232147,0.660,-0.294,10.050,-6.800,38.400,132.700,-0.875,2.883,0.438
2019-06-09-14:59:01.251727,0.646,-0.316,10.045,-9.900,51.300,185.100,-0.781,2.883,0.219
2019-06-09-14:59:01.271263,0.656,-0.301,10.129,-0.200,45.700,131.500,-0.812,2.875,0.289
2019-06-09-14:59:01.290770,0.658,-0.311,10.091,10.800,92.900,190.600,-0.781,2.734,0.570
2019-06-09-14:59:01.310353,0.639,-0.337,10.093,-2.200,83.400,223.300,-0.898,2.875,0.148
2019-06-09-14:59:01.330259,0.629,-0.306,10.055,9.300,84.600,190.900,-0.641,2.859,0.398
2019-06-09-14:59:01.349755,0.682,-0.316,10.086,-9.600,48.700,169.400,-0.367,2.734,0.445
2019-06-09-14:59:01.369421,0.634,-0.290,10.086,6.900,61.200,156.800,-0.781,2.797,0.352
2019-06-09-14:59:01.388946,0.636,-0.287,10.071,-13.000,43.700,173.400,-0.852,2.672,0.391
2019-06-09-14:59:01.408403,0.636,-0.285,10.067,-9.900,66.500,207.400,-0.711,2.898,0.242
2019-06-09-14:59:01.427942,0.629,-0.273,10.019,-8.800,9.000,117.700,-0.656,2.844,0.578
2019-06-09-14:59:01.447374,0.610,-0.290,10.038,-5.300,81.000,229.700,-0.664,2.875,0.414
2019-06-09-14:59:01.466886,0.699,-0.290,10.081,14.100,85.300,185.500,-0.266,2.875,0.289
2019-06-09-14:59:01.486316,0.629,-0.270,10.086,11.800,81.800,186.000,-0.656,2.898,0.422
2019-06-09-14:59:01.505820,0.629,-0.261,10.000,1.400,90.900,227.200,-0.734,3.117,0.336
2019-06-09-14:59:01.525284,0.639,-0.270,10.059,-16.800,7.100,128.800,-0.297,2.672,0.258
2019-06-09-14:59:01.544705,0.660,-0.280,10.107,-2.500,16.000,97.500,-0.492,2.773,0.352
2019-06-09-14:59:01.564240,0.634,-0.244,9.957,-22.800,3.900,137.800,-0.734,2.859,0.172
2019-06-09-14:59:01.583681,0.641,-0.249,10.021,-0.800,74.900,209.300,-0.758,2.773,0.258
2019-06-09-14:59:01.603109,0.660,-0.251,10.105,1.100,38.300,133.000,-0.375,3.070,0.352
2019-06-09-14:59:01.622548,0.639,-0.254,9.997,-0.700,74.100,205.700,-0.438,2.578,0.602
2019-06-09-14:59:01.641983,0.670,-0.249,10.026,-11.500,34.600,159.200,-0.688,2.898,0.523
2019-06-09-14:59:01.661545,0.668,-0.301,10.043,-11.200,37.100,160.000,-0.422,2.961,0.914
2019-06-09-14:59:01.680992,0.651,-0.368,9.964,1.400,67.600,189.700,-0.492,2.812,0.336
2019-06-09-14:59:01.700481,0.694,-0.364,10.124,-2.500,70.100,199.900,-0.703,2.820,0.352
2019-06-09-14:59:01.720604,0.677,-0.347,10.150,-6.700,29.800,135.900,-0.352,2.672,0.492
2019-06-09-14:59:01.740129,0.656,-0.352,10.126,-8.400,62.000,198.100,-0.836,3.164,0.375
2019-06-09-14:59:01.759726,0.677,-0.345,10.124,-5.400,46.100,169.200,-0.727,2.820,0.195
2019-06-09-14:59:01.779185,0.668,-0.361,10.165,-4.000,47.000,173.700,-0.609,2.984,0.438
2019-06-09-14:59:01.798601,0.675,-0.357,10.057,-6.100,51.900,171.600,-0.680,2.922,0.375
2019-06-09-14:59:01.818003,0.651,-0.292,10.047,-3.200,46.100,168.600,-0.734,2.945,0.484
2019-06-09-14:59:01.837413,0.668,-0.299,10.146,5.500,57.600,156.500,-0.531,2.945,0.469
2019-06-09-14:59:01.856869,0.656,-0.318,10.083,-2.100,50.300,168.400,-0.367,2.906,0.367
2019-06-09-14:59:01.876420,0.672,-0.309,10.050,-4.500,49.900,168.200,-0.914,3.047,0.508
2019-06-09-14:59:01.895966,0.672,-0.328,10.107,-6.200,44.300,161.000,-0.266,2.930,0.398
2019-06-09-14:59:01.915409,0.675,-0.311,10.114,-4.800,49.600,181.000,-0.586,2.969,0.391
2019-06-09-14:59:01.934834,0.677,-0.304,10.102,-12.300,24.800,143.100,-0.766,3.156,0.523
2019-06-09-14:59:01.954408,0.660,-0.311,10.102,3.800,58.500,172.200,-0.680,2.820,0.414
2019-06-09-14:59:01.973994,0.682,-0.309,10.093,-12.800,31.800,158.400,-1.023,2.969,0.531
2019-06-09-14:59:01.993426,0.646,-0.333,10.067,-8.500,60.900,202.100,-0.516,2.875,0.305
2019-06-09-14:59:02.012832,0.634,-0.278,10.086,-12.300,27.800,150.900,-0.539,2.922,0.531
2019-06-09-14:59:02.032318,0.634,-0.294,10.057,5.800,69.200,191.800,-0.594,2.812,0.523
2019-06-09-14:59:02.051745,0.675,-0.282,10.095,2.900,53.500,154.100,-0.305,3.070,0.422
2019-06-09-14:59:02.071270,0.648,-0.278,10.040,-10.500,54.800,197.500,-0.656,2.602,0.398
2019-06-09-14:59:02.090750,0.636,-0.325,10.043,-15.100,54.600,198.800,-0.422,2.883,0.336
2019-06-09-14:59:02.110202,0.653,-0.306,10.193,-12.200,-7.200,78.300,-0.484,2.789,0.328
2019-06-09-14:59:02.129698,0.694,-0.347,10.191,-12.800,75.100,253.800,-0.750,2.883,0.531
2019-06-09-14:59:02.149141,0.668,-0.357,10.179,-11.700,-7.700,78.100,-0.633,2.930,0.352
2019-06-09-14:59:02.168634,0.668,-0.357,10.081,-14.200,71.200,248.900,-0.922,2.688,0.531
2019-06-09-14:59:02.188082,0.670,-0.359,10.107,6.100,106.200,250.600,-0.219,2.773,0.188
2019-06-09-14:59:02.207656,0.656,-0.333,10.155,-3.500,52.300,183.800,-0.547,2.945,0.398
2019-06-09-14:59:02.227071,0.689,-0.385,10.134,8.400,95.000,237.600,-0.516,2.859,0.305
2019-06-09-14:59:02.246476,0.675,-0.323,10.112,16.000,83.500,188.600,-0.250,2.703,0.398
2019-06-09-14:59:02.265999,0.668,-0.354,10.114,12.700,96.600,213.600,-0.531,2.969,0.422
2019-06-09-14:59:02.285496,0.663,-0.364,10.088,4.500,94.700,248.300,-1.000,3.008,0.234
2019-06-09-14:59:02.304922,0.656,-0.311,10.119,-2.000,18.700,105.800,-0.398,2.906,0.523
2019-06-09-14:59:02.324359,0.646,-0.340,10.138,-3.100,81.700,246.500,-0.461,2.922,0.492
2019-06-09-14:59:02.343763,0.672,-0.309,10.079,-19.400,42.900,188.000,-0.547,3.180,0.375
2019-06-09-14:59:02.363244,0.660,-0.323,10.095,5.300,46.000,143.800,-0.461,2.969,0.281
2019-06-09-14:59:02.382819,0.682,-0.330,10.146,0.700,34.000,124.800,-0.883,2.875,0.422
2019-06-09-14:59:02.402360,0.651,-0.333,10.081,4.600,62.100,179.600,-0.836,2.836,0.414
2019-06-09-14:59:02.421807,0.653,-0.301,10.119,-0.600,71.100,222.300,-0.805,2.727,0.422
2019-06-09-14:59:02.441307,0.675,-0.282,10.069,-2.600,52.500,178.400,-0.953,2.875,0.125
2019-06-09-14:59:02.460726,0.651,-0.340,10.138,-15.200,27.300,157.900,-0.781,2.758,0.641
2019-06-09-14:59:02.480187,0.617,-0.354,10.079,-3.500,60.700,197.000,-0.633,2.922,0.305
2019-06-09-14:59:02.499682,0.636,-0.313,10.071,-0.100,86.300,238.800,-0.688,2.648,0.102
2019-06-09-14:59:02.519781,0.641,-0.287,10.098,-1.300,34.100,135.800,-1.008,3.055,0.438
2019-06-09-14:59:02.539480,0.651,-0.309,10.024,-11.700,23.100,143.200,-0.422,2.883,0.703
2019-06-09-14:59:02.558933,0.689,-0.340,10.083,1.800,49.000,168.000,-0.750,2.711,0.391
2019-06-09-14:59:02.578402,0.668,-0.340,10.136,-1.600,42.800,158.500,-0.656,2.898,0.234
2019-06-09-14:59:02.597924,0.689,-0.304,10.076,-13.700,48.200,196.700,-0.734,2.617,0.422
2019-06-09-14:59:02.617373,0.672,-0.364,10.107,16.300,110.400,253.600,-0.656,2.922,0.336
2019-06-09-14:59:02.636826,0.703,-0.345,10.141,-23.300,-25.900,73.700,-0.758,2.750,0.219
2019-06-09-14:59:02.656258,0.634,-0.316,10.095,7.800,76.300,199.800,-0.344,2.961,0.062
2019-06-09-14:59:02.675679,0.677,-0.297,9.971,-25.100,55.500,246.200,-0.344,2.758,0.328
2019-06-09-14:59:02.697256,0.680,-0.366,10.141,-19.800,76.200,269.800,-0.727,2.859,0.258
2019-06-09-14:59:02.716766,0.636,-0.342,10.069,1.500,32.400,126.100,-0.852,2.648,0.594
2019-06-09-14:59:02.736199,0.703,-0.364,10.105,-28.800,19.300,175.500,-0.305,2.797,0.328
2019-06-09-14:59:02.755728,0.620,-0.323,10.050,4.200,64.400,182.500,-0.734,2.773,0.422
2019-06-09-14:59:02.775423,0.684,-0.340,10.100,-13.600,76.500,269.200,-0.812,2.797,0.367
2019-06-09-14:59:02.794991,0.663,-0.347,10.105,4.600,21.300,103.600,-0.875,2.945,0.188
2019-06-09-14:59:02.814460,0.601,-0.335,10.040,-24.800,45.800,236.500,-0.836,2.883,0.438
2019-06-09-14:59:02.833900,0.675,-0.318,10.169,19.200,73.500,184.600,-1.117,2.883,0.438
2019-06-09-14:59:02.853378,0.694,-0.366,10.179,-26.900,-8.200,128.200,-1.047,2.969,0.523
2019-06-09-14:59:02.872948,0.687,-0.328,10.062,14.500,103.100,245.800,-0.734,2.859,0.289
2019-06-09-14:59:02.892551,0.639,-0.335,10.155,-25.200,-14.600,107.600,-0.633,2.875,0.188
2019-06-09-14:59:02.911997,0.627,-0.361,10.107,3.100,109.900,282.100,-0.664,2.875,0.461
2019-06-09-14:59:02.931949,0.708,-0.313,10.177,18.800,62.400,165.000,-1.008,2.852,-0.008
2019-06-09-14:59:02.951563,0.656,-0.397,10.016,-8.700,96.200,286.800,-0.641,2.711,0.352
2019-06-09-14:59:02.971020,0.629,-0.335,10.095,-22.500,-23.400,91.700,-0.805,2.820,0.188
2019-06-09-14:59:02.990455,0.629,-0.282,10.035,-3.000,109.300,297.600,-0.109,2.906,0.531
2019-06-09-14:59:03.009877,0.660,-0.306,10.052,15.600,119.100,276.400,-0.703,2.750,0.258
2019-06-09-14:59:03.029391,0.615,-0.359,10.093,-38.400,-3.100,159.500,-0.555,3.047,0.508
2019-06-09-14:59:03.048809,0.646,-0.266,10.114,-39.100,-3.400,157.900,-0.406,3.016,0.422
2019-06-09-14:59:03.068212,0.625,-0.318,10.093,-38.800,8.800,187.900,-0.297,2.906,0.352
2019-06-09-14:59:03.091770,0.622,-0.278,9.990,-6.500,116.300,330.600,-0.711,2.688,0.258
2019-06-09-14:59:03.111442,0.660,-0.323,10.095,-18.800,-47.000,41.200,-1.055,2.984,0.625
2019-06-09-14:59:03.130956,0.629,-0.304,10.021,-32.300,27.300,233.400,-0.758,2.984,0.281
2019-06-09-14:59:03.150474,0.625,-0.323,10.079,-34.800,14.200,208.700,-0.422,2.992,0.336
2019-06-09-14:59:03.169910,0.632,-0.299,10.105,-19.300,-49.000,41.000,-0.539,2.898,0.312
2019-06-09-14:59:03.189428,0.646,-0.333,10.024,-25.800,63.600,290.800,-0.734,2.836,0.414
2019-06-09-14:59:03.208938,0.656,-0.287,10.122,22.200,40.100,114.500,-0.570,3.070,0.547
2019-06-09-14:59:03.228367,0.670,-0.333,10.153,-34.700,43.100,269.800,-0.594,2.922,0.508
2019-06-09-14:59:03.247885,0.651,-0.354,10.141,-35.400,31.100,246.500,-0.250,2.727,0.617
2019-06-09-14:59:03.267316,0.629,-0.304,10.119,-24.400,-42.500,52.600,-0.617,2.688,0.305
2019-06-09-14:59:03.286800,0.622,-0.313,10.091,-23.600,75.900,302.100,-0.516,2.922,0.305
2019-06-09-14:59:03.306274,0.665,-0.330,10.126,-5.000,-42.700,31.700,-0.656,2.922,0.508
2019-06-09-14:59:03.325683,0.680,-0.340,10.119,-36.000,-27.400,101.400,-0.469,2.984,0.414
2019-06-09-14:59:03.345085,0.639,-0.347,10.119,-34.500,67.900,300.500,-0.734,2.930,0.062
2019-06-09-14:59:03.364698,0.723,-0.330,10.169,-14.800,-67.700,-4.900,-0.367,2.969,0.367
2019-06-09-14:59:03.384274,0.701,-0.330,10.141,23.000,77.100,165.600,-0.680,2.875,0.531
2019-06-09-14:59:03.403784,0.660,-0.357,10.110,12.300,131.400,303.900,-0.922,2.820,0.305
2019-06-09-14:59:03.423236,0.694,-0.380,10.124,-37.600,7.900,190.100,-0.516,2.773,0.414
2019-06-09-14:59:03.442668,0.665,-0.345,10.119,-33.800,38.500,248.000,-0.727,2.750,0.195
2019-06-09-14:59:03.462089,0.680,-0.342,10.184,-38.600,-27.400,98.000,-0.922,2.703,0.281
2019-06-09-14:59:03.481596,0.677,-0.361,10.213,-25.600,-43.100,40.100,-0.305,2.688,0.133
2019-06-09-14:59:03.501010,0.706,-0.364,10.093,-39.700,1.800,175.600,-0.586,2.984,0.391
2019-06-09-14:59:03.520474,0.644,-0.330,10.000,-16.200,112.700,326.800,-1.164,2.844,0.281
2019-06-09-14:59:03.539948,0.648,-0.349,10.024,16.200,138.900,305.600,-0.812,2.945,0.352
2019-06-09-14:59:03.559485,0.668,-0.325,10.043,-26.200,91.400,312.700,-0.812,3.156,0.352
2019-06-09-14:59:03.578899,0.605,-0.337,10.014,10.000,141.200,319.900,-0.484,2.930,0.289
2019-06-09-14:59:03.598311,0.658,-0.266,10.141,26.200,82.600,175.400,-0.812,2.859,0.258
2019-06-09-14:59:03.617918,0.670,-0.287,10.083,-22.600,99.900,320.300,-0.352,2.992,0.375
2019-06-09-14:59:03.637404,0.632,-0.258,10.102,21.700,33.000,99.300,-0.594,2.922,0.391
2019-06-09-14:59:03.656835,0.636,-0.287,10.119,13.600,-4.800,51.000,-0.641,3.180,0.367
2019-06-09-14:59:03.676254,0.634,-0.275,10.069,22.900,39.500,109.900,-0.688,2.648,0.445
2019-06-09-14:59:03.695700,0.665,-0.261,10.091,-42.500,-24.500,105.400,-0.375,2.750,0.445
2019-06-09-14:59:03.715276,0.613,-0.357,10.071,-31.800,75.600,298.600,-0.656,2.664,0.484
2019-06-09-14:59:03.735180,0.706,-0.330,10.062,24.700,59.300,135.100,-0.375,2.773,0.445
2019-06-09-14:59:03.754694,0.641,-0.345,10.040,-27.500,89.700,316.900,-0.711,2.875,0.555
2019-06-09-14:59:03.774231,0.605,-0.301,10.014,9.100,139.900,328.500,-1.000,2.875,0.305
2019-06-09-14:59:03.793667,0.682,-0.285,10.057,22.000,130.800,292.300,-0.734,2.883,0.102
2019-06-09-14:59:03.813087,0.625,-0.347,10.124,29.900,86.600,189.700,-0.953,2.820,0.398
2019-06-09-14:59:03.832576,0.620,-0.304,10.088,-24.100,72.100,302.300,-0.820,3.008,0.375
2019-06-09-14:59:03.852102,0.632,-0.318,10.040,28.600,100.400,217.800,-0.562,2.906,0.391
2019-06-09-14:59:03.871819,0.713,-0.349,10.117,-37.500,9.900,195.500,-0.414,2.969,0.375
2019-06-09-14:59:03.891536,0.613,-0.359,10.052,-22.800,80.400,312.400,-0.594,2.797,0.422
2019-06-09-14:59:03.911002,0.665,-0.294,10.114,28.400,74.200,167.300,-0.711,2.836,0.391
2019-06-09-14:59:03.930437,0.696,-0.366,10.069,17.500,129.500,300.300,-0.789,2.961,0.211
2019-06-09-14:59:03.951088,0.692,-0.280,10.040,28.400,104.500,227.700,-0.781,3.016,0.336
2019-06-09-14:59:03.976015,0.639,-0.376,10.169,-47.200,-10.900,142.700,-0.789,2.773,0.367
2019-06-09-14:59:03.996113,0.639,-0.402,10.083,6.500,23.500,116.900,-0.547,3.070,0.031
2019-06-09-14:59:04.015860,0.668,-0.409,10.095,11.100,83.000,201.700,-0.758,3.133,0.492
2019-06-09-14:59:04.035420,0.656,-0.335,10.100,10.300,102.700,240.000,-0.422,2.727,0.523
2019-06-09-14:59:04.054924,0.682,-0.373,10.138,-41.500,15.600,197.600,-0.586,2.711,0.727
2019-06-09-14:59:04.074415,0.663,-0.347,10.102,3.800,135.800,326.200,-0.352,2.820,0.414
2019-06-09-14:59:04.093906,0.668,-0.318,10.160,-1.100,106.500,274.300,-0.461,2.812,0.578
2019-06-09-14:59:04.113417,0.692,-0.313,10.107,2.400,114.100,279.100,-0.688,2.961,0.492
2019-06-09-14:59:04.133331,0.677,-0.325,10.181,-24.100,85.600,291.800,-0.359,3.031,0.570
2019-06-09-14:59:04.152842,0.708,-0.345,10.208,-6.000,-26.100,65.400,-0.711,3.070,0.547
2019-06-09-14:59:04.172370,0.658,-0.294,10.141,3.800,-20.700,60.900,-0.727,2.727,0.234
2019-06-09-14:59:04.193887,0.646,-0.349,10.131,12.500,124.500,278.100,-0.781,2.992,0.414
2019-06-09-14:59:04.213409,0.699,-0.309,10.167,-10.800,118.600,315.100,-0.531,2.969,0.469
2019-06-09-14:59:04.232921,0.656,-0.318,10.102,2.300,-31.900,45.300,-0.883,2.883,0.367
2019-06-09-14:59:04.252461,0.665,-0.266,10.055,25.700,70.200,173.400,-0.688,2.641,0.305
2019-06-09-14:59:04.271929,0.636,-0.347,10.093,-33.400,-28.000,109.000,-0.680,2.750,0.414
2019-06-09-14:59:04.291341,0.670,-0.337,10.201,-28.600,-43.500,62.900,-0.773,2.711,0.133
2019-06-09-14:59:04.310831,0.670,-0.313,10.040,-18.500,-51.900,36.200,-0.438,2.883,0.570
2019-06-09-14:59:04.330302,0.696,-0.347,10.162,-4.000,-45.400,30.200,-0.352,2.664,0.242
2019-06-09-14:59:04.349748,0.680,-0.294,10.091,-9.900,-51.000,27.800,-0.250,2.922,0.594
2019-06-09-14:59:04.369309,0.613,-0.321,10.045,-35.700,-8.500,148.100,-0.219,2.859,0.469
2019-06-09-14:59:04.388836,0.636,-0.301,10.086,3.400,-32.700,39.500,-0.828,2.945,0.312
2019-06-09-14:59:04.408293,0.663,-0.316,10.026,27.100,96.600,230.700,-0.156,3.273,0.312
2019-06-09-14:59:04.427825,0.586,-0.304,9.985,-11.500,106.700,326.900,-0.492,2.812,0.641
2019-06-09-14:59:04.447330,0.620,-0.304,10.050,-15.700,-48.600,38.900,-0.734,2.789,0.508
2019-06-09-14:59:04.466761,0.646,-0.287,10.095,-2.100,-37.600,38.000,-0.570,2.859,0.312
2019-06-09-14:59:04.486174,0.658,-0.390,10.119,-35.000,-17.200,120.900,-0.273,2.773,0.211
2019-06-09-14:59:04.505572,0.625,-0.347,10.174,-3.700,120.500,333.000,-0.750,2.922,0.414
2019-06-09-14:59:04.525158,0.670,-0.383,10.122,-20.300,91.000,311.600,-0.133,2.930,0.461
2019-06-09-14:59:04.544720,0.660,-0.354,10.079,-27.100,-38.900,67.500,-0.492,2.836,0.438
2019-06-09-14:59:04.564233,0.620,-0.342,10.146,12.100,-7.600,62.800,-0.875,2.820,0.492
2019-06-09-14:59:04.583676,0.687,-0.364,10.091,10.200,10.700,86.600,-1.070,2.930,0.445
2019-06-09-14:59:04.603083,0.706,-0.345,10.105,-31.400,-3.900,155.500,-0.039,2.945,0.312
2019-06-09-14:59:04.622536,0.656,-0.316,10.143,-4.800,103.700,314.100,-0.539,3.102,0.195
2019-06-09-14:59:04.642035,0.692,-0.321,10.191,12.300,31.500,109.400,-0.617,2.750,0.367
2019-06-09-14:59:04.661769,0.699,-0.337,10.189,11.900,28.000,103.700,-0.508,2.906,0.547
2019-06-09-14:59:04.681366,0.668,-0.361,10.031,-29.600,43.300,229.300,-0.219,2.961,0.469
2019-06-09-14:59:04.700909,0.672,-0.321,10.079,-31.700,24.700,188.900,-0.641,2.883,0.234
2019-06-09-14:59:04.720405,0.658,-0.316,9.968,-5.500,98.100,288.400,-0.344,2.711,0.211
2019-06-09-14:59:04.739844,0.636,-0.337,10.081,-5.400,100.000,290.800,-0.812,2.797,0.367
2019-06-09-14:59:04.759283,0.615,-0.285,10.057,1.600,104.800,284.200,-0.633,2.711,0.312
2019-06-09-14:59:04.778713,0.651,-0.335,10.057,7.700,98.800,243.100,-0.727,2.844,0.328
2019-06-09-14:59:04.798124,0.636,-0.349,10.076,0.900,102.700,263.200,-0.828,2.898,0.188
2019-06-09-14:59:04.817637,0.632,-0.321,10.083,-5.100,104.900,278.900,-0.758,3.008,0.461
2019-06-09-14:59:04.837045,0.668,-0.340,10.095,-21.800,-15.200,91.400,-0.578,3.102,0.469
2019-06-09-14:59:04.856549,0.605,-0.297,10.169,8.900,27.200,114.600,-0.633,2.859,0.625
2019-06-09-14:59:04.876115,0.677,-0.249,10.177,-29.200,3.500,142.300,-0.547,2.945,0.414
2019-06-09-14:59:04.895569,0.601,-0.282,10.050,-26.200,-12.500,103.500,-0.688,2.750,0.242
2019-06-09-14:59:04.915002,0.701,-0.347,10.146,-32.900,27.200,214.800,-0.930,3.289,0.445
2019-06-09-14:59:04.934874,0.620,-0.311,10.134,-13.900,120.900,337.200,-0.461,2.789,0.172
2019-06-09-14:59:04.954442,0.658,-0.304,10.031,-2.300,-18.600,56.100,-0.422,2.945,0.211
2019-06-09-14:59:04.973864,0.653,-0.287,10.100,-33.400,-6.700,134.600,-0.570,2.945,0.391
2019-06-09-14:59:04.993272,0.625,-0.285,10.117,-36.200,-8.800,135.900,-1.250,3.047,0.375
2019-06-09-14:59:05.012682,0.651,-0.282,10.033,-34.500,-28.100,87.600,-0.812,2.773,0.438
2019-06-09-14:59:05.032092,0.684,-0.287,9.985,1.000,50.600,163.800,-0.656,2.812,0.258
2019-06-09-14:59:05.051758,0.625,-0.409,10.117,14.200,11.600,82.900,-0.859,2.961,0.352
2019-06-09-14:59:05.071291,0.668,-0.371,10.067,-35.400,-34.600,93.300,-0.469,2.883,0.367
2019-06-09-14:59:05.090723,0.653,-0.325,10.035,-32.200,33.200,231.100,-1.055,2.992,0.375
2019-06-09-14:59:05.110130,0.632,-0.359,10.169,-37.300,-7.700,149.000,-0.547,2.969,0.438
2019-06-09-14:59:05.129681,0.663,-0.330,10.193,-7.900,-48.200,31.100,-0.891,3.156,0.531
2019-06-09-14:59:05.149119,0.677,-0.354,10.057,-11.400,110.400,328.600,-0.516,2.984,0.523
2019-06-09-14:59:05.168627,0.625,-0.340,10.086,-19.700,82.300,301.000,-0.492,2.906,0.461
2019-06-09-14:59:05.188048,0.613,-0.373,10.050,-5.900,108.700,321.700,-0.953,2.648,0.391
2019-06-09-14:59:05.207459,0.692,-0.352,10.203,19.800,51.000,149.300,-0.594,2.750,0.289
2019-06-09-14:59:05.226928,0.663,-0.280,10.076,23.000,86.500,215.500,-0.836,3.070,0.312
2019-06-09-14:59:05.246346,0.639,-0.371,10.122,-33.900,12.000,188.200,-0.688,2.625,0.375
2019-06-09-14:59:05.265933,0.692,-0.359,10.181,10.600,-5.400,67.400,-0.516,2.945,0.398
2019-06-09-14:59:05.285377,0.586,-0.340,10.181,20.700,55.900,152.800,-0.492,2.820,0.461
2019-06-09-14:59:05.304797,0.625,-0.258,9.940,21.800,110.200,261.100,-0.516,2.961,0.258
2019-06-09-14:59:05.324798,0.627,-0.280,10.079,-24.100,55.200,261.000,-0.688,2.961,0.484
2019-06-09-14:59:05.344448,0.665,-0.211,10.095,-25.400,50.200,256.200,-0.633,2.945,0.312
2019-06-09-14:59:05.364092,0.620,-0.273,9.983,8.000,-6.800,73.200,-0.516,3.055,0.336
2019-06-09-14:59:05.383620,0.589,-0.280,10.045,-21.200,-27.900,80.400,-0.797,3.031,0.281
2019-06-09-14:59:05.403045,0.672,-0.323,10.009,18.200,84.700,218.500,-0.609,2.859,0.289
2019-06-09-14:59:05.422516,0.605,-0.285,10.050,-3.600,14.000,122.000,-0.570,3.055,0.648
2019-06-09-14:59:05.441936,0.636,-0.316,10.088,-31.700,-3.300,151.500,-0.953,2.883,0.305
2019-06-09-14:59:05.461374,0.665,-0.290,10.093,-21.000,58.400,267.000,-0.812,2.812,0.398
2019-06-09-14:59:05.480850,0.660,-0.292,10.148,-2.000,117.200,322.000,-0.531,2.844,0.234
2019-06-09-14:59:05.500253,0.663,-0.323,9.961,-23.100,62.200,263.900,-0.680,2.945,0.242
2019-06-09-14:59:05.519665,0.615,-0.316,10.059,-30.000,23.000,194.900,-0.008,2.961,0.289
2019-06-09-14:59:05.539121,0.660,-0.270,10.138,13.300,86.200,202.400,-0.273,2.969,0.336
2019-06-09-14:59:05.558541,0.699,-0.318,10.026,6.400,104.800,258.600,-0.680,2.945,0.289
2019-06-09-14:59:05.578019,0.636,-0.313,9.997,-5.300,105.700,283.900,-0.711,2.906,0.531
2019-06-09-14:59:05.597460,0.677,-0.335,10.150,10.100,38.000,125.300,-0.492,2.797,0.195
2019-06-09-14:59:05.616909,0.684,-0.301,10.012,-0.100,109.300,281.400,-0.461,2.922,0.555
2019-06-09-14:59:05.636369,0.644,-0.371,10.153,-31.400,0.600,138.100,-0.391,2.758,0.375
2019-06-09-14:59:05.655898,0.682,-0.342,10.239,-14.400,-15.600,75.000,-0.625,3.008,0.242
2019-06-09-14:59:05.675398,0.699,-0.342,10.126,-0.700,-1.700,81.400,-0.930,2.945,0.398
2019-06-09-14:59:05.696909,0.656,-0.366,10.136,-32.400,-8.800,120.700,-0.664,2.750,0.234
2019-06-09-14:59:05.716413,0.625,-0.388,10.162,-24.000,-25.200,76.300,-0.930,2.898,0.125
2019-06-09-14:59:05.735942,0.634,-0.330,10.052,-12.500,108.200,305.400,-0.344,2.812,0.352
2019-06-09-14:59:05.755357,0.653,-0.359,10.031,-31.000,49.600,244.400,-0.898,2.883,0.703
2019-06-09-14:59:05.774809,0.608,-0.330,10.057,-24.800,83.000,286.100,-0.109,2.875,0.258
2019-06-09-14:59:05.794302,0.620,-0.280,10.191,18.900,42.000,117.600,-0.727,2.477,0.375
2019-06-09-14:59:05.813719,0.658,-0.256,9.973,-25.700,-43.700,45.800,-0.781,3.047,0.258
2019-06-09-14:59:05.833204,0.682,-0.263,10.117,-22.900,88.600,296.600,-0.562,2.984,0.438
2019-06-09-14:59:05.852621,0.641,-0.285,9.990,19.500,60.500,149.800,-0.680,2.430,0.484
2019-06-09-14:59:05.872147,0.656,-0.261,10.057,-25.700,81.500,289.100,-0.836,2.703,0.469
2019-06-09-14:59:05.891836,0.641,-0.299,10.045,10.700,134.600,310.100,-0.281,3.047,0.188
2019-06-09-14:59:05.911347,0.622,-0.268,10.040,4.900,127.200,312.700,-0.609,2.555,0.266
2019-06-09-14:59:05.930819,0.634,-0.278,10.088,-37.100,4.100,159.900,-0.180,2.836,0.508
2019-06-09-14:59:05.950236,0.684,-0.287,10.052,-32.100,56.400,255.000,-0.211,3.180,0.422
2019-06-09-14:59:05.969782,0.608,-0.316,10.146,21.400,46.900,141.900,-0.695,3.016,0.336
2019-06-09-14:59:05.989251,0.680,-0.258,10.047,22.600,96.500,227.800,-0.727,2.734,0.484
2019-06-09-14:59:06.008665,0.610,-0.256,9.992,-32.600,-24.000,102.100,-0.461,2.906,0.375
2019-06-09-14:59:06.028063,0.608,-0.292,10.028,-34.400,-15.800,124.600,-0.430,3.055,0.352
2019-06-09-14:59:06.047468,0.591,-0.270,10.110,-28.100,-35.800,75.500,-0.422,2.711,0.156
2019-06-09-14:59:06.066864,0.692,-0.268,10.098,9.100,-13.400,66.700,-0.531,2.945,0.375
2019-06-09-14:59:06.086316,0.675,-0.345,10.071,-34.600,5.700,170.000,-0.781,2.859,0.352
2019-06-09-14:59:06.105824,0.670,-0.301,10.138,9.800,117.100,302.600,-0.289,2.789,0.531
2019-06-09-14:59:06.125839,0.684,-0.306,10.129,-6.100,106.000,316.800,-0.508,2.906,0.414
2019-06-09-14:59:06.145530,0.653,-0.347,10.007,-16.300,85.400,305.400,-0.930,3.008,0.375
2019-06-09-14:59:06.164975,0.632,-0.337,10.138,11.600,3.300,87.200,-0.375,3.055,0.375
2019-06-09-14:59:06.184459,0.684,-0.330,10.136,20.200,46.000,143.000,-0.594,2.875,0.547
2019-06-09-14:59:06.204012,0.634,-0.345,10.055,-32.200,-6.700,135.800,-0.875,2.820,0.062
2019-06-09-14:59:06.223448,0.627,-0.263,10.155,-21.700,-33.900,69.800,-0.414,2.875,0.555
2019-06-09-14:59:06.242880,0.605,-0.232,10.062,-31.100,-15.400,114.000,-0.727,2.727,0.148
2019-06-09-14:59:06.262408,0.703,-0.318,10.091,-25.500,49.200,248.400,-1.016,2.758,0.352
2019-06-09-14:59:06.281849,0.617,-0.273,10.033,-29.800,17.300,180.500,-0.484,2.906,0.484
2019-06-09-14:59:06.301413,0.615,-0.246,9.973,-16.500,-24.700,72.800,-0.781,2.898,0.570
2019-06-09-14:59:06.320839,0.627,-0.282,10.021,8.800,116.500,301.200,-0.664,2.922,0.445
2019-06-09-14:59:06.340249,0.613,-0.266,10.043,9.300,58.800,185.400,-0.547,2.961,0.523
2019-06-09-14:59:06.359841,0.601,-0.285,9.985,1.600,36.800,152.500,-0.906,2.883,0.234
2019-06-09-14:59:06.379428,0.651,-0.266,9.947,-34.800,-22.000,110.600,-0.656,2.922,0.578
2019-06-09-14:59:06.398963,0.634,-0.261,9.995,9.500,94.600,241.100,-0.586,2.859,0.336
2019-06-09-14:59:06.418409,0.629,-0.273,10.062,-10.300,-15.000,81.700,-0.664,2.758,0.172
2019-06-09-14:59:06.437919,0.584,-0.328,9.978,-21.600,59.600,249.200,-0.812,2.859,0.508
2019-06-09-14:59:06.457352,0.605,-0.294,9.971,-31.100,27.900,190.700,-0.867,3.078,0.281
2019-06-09-14:59:06.476768,0.646,-0.297,10.024,-30.100,0.300,129.900,-0.508,2.984,0.602
2019-06-09-14:59:06.496222,0.622,-0.313,10.083,-18.300,-15.700,95.300,-0.484,2.773,0.242
2019-06-09-14:59:06.515641,0.670,-0.280,10.088,-4.300,-7.100,86.300,-0.469,3.070,0.219
2019-06-09-14:59:06.535538,0.632,-0.258,10.007,-8.900,93.600,282.100,-0.586,2.930,0.594
2019-06-09-14:59:06.555036,0.668,-0.280,10.119,12.300,81.900,213.600,-0.469,2.969,0.156
2019-06-09-14:59:06.574449,0.636,-0.342,10.035,-25.400,42.400,213.100,-0.398,3.055,0.281
2019-06-09-14:59:06.593846,0.636,-0.251,10.047,11.200,84.100,218.500,-0.320,2.586,0.547
2019-06-09-14:59:06.613308,0.636,-0.294,10.119,-18.100,70.300,260.800,-0.531,2.930,0.281
2019-06-09-14:59:06.632797,0.699,-0.287,10.050,-20.800,-2.600,133.500,-0.586,2.711,0.422
2019-06-09-14:59:06.652306,0.613,-0.342,10.131,-25.300,44.000,214.000,-0.828,2.898,0.266
2019-06-09-14:59:06.671779,0.677,-0.301,10.169,-7.700,82.500,267.100,-0.641,2.773,0.258
2019-06-09-14:59:06.691296,0.665,-0.345,10.098,-32.500,-11.200,125.800,-0.594,3.164,0.219
2019-06-09-14:59:06.710864,0.696,-0.309,10.105,-26.000,10.100,142.800,-0.852,2.531,0.234
2019-06-09-14:59:06.730364,0.620,-0.301,10.186,-16.700,49.700,212.600,-0.875,2.641,0.570
2019-06-09-14:59:06.749781,0.672,-0.297,10.028,-3.200,56.900,187.600,-0.922,2.820,0.414
2019-06-09-14:59:06.769189,0.644,-0.330,10.126,-11.100,100.600,292.500,-0.750,2.820,0.492
2019-06-09-14:59:06.788612,0.646,-0.268,10.050,-18.700,-10.800,113.300,-0.734,2.812,0.219
2019-06-09-14:59:06.808117,0.646,-0.292,10.088,-1.100,85.000,268.300,-0.727,2.836,0.289
2019-06-09-14:59:06.827663,0.632,-0.268,10.055,-24.500,27.100,187.400,-0.922,2.773,0.438
2019-06-09-14:59:06.847123,0.603,-0.323,10.035,-25.500,14.600,160.400,-0.539,2.961,0.375
2019-06-09-14:59:06.866734,0.598,-0.299,10.009,-11.400,66.900,260.000,-0.375,2.664,0.438
2019-06-09-14:59:06.886254,0.615,-0.220,9.925,-6.900,-7.000,108.900,-0.273,2.930,0.234
2019-06-09-14:59:06.905739,0.620,-0.273,9.971,-12.700,-1.400,123.200,-0.734,2.906,0.211
2019-06-09-14:59:06.925209,0.603,-0.254,10.045,6.800,60.900,188.600,-0.688,3.008,0.531
2019-06-09-14:59:06.944619,0.634,-0.261,9.937,-18.500,11.900,142.700,-0.516,2.922,0.328
2019-06-09-14:59:06.964131,0.644,-0.263,10.014,-4.200,76.200,259.300,-0.523,3.047,0.414
2019-06-09-14:59:06.983540,0.670,-0.234,10.064,4.500,44.100,164.600,-1.000,2.844,0.492
2019-06-09-14:59:07.003000,0.708,-0.330,10.102,-3.600,15.300,135.400,-0.039,2.898,0.422
2019-06-09-14:59:07.022429,0.634,-0.256,10.074,-12.200,15.300,139.500,-0.469,2.922,0.281
2019-06-09-14:59:07.041839,0.658,-0.297,10.019,-16.600,21.000,154.600,-0.055,2.969,0.648
2019-06-09-14:59:07.061329,0.677,-0.321,10.150,0.400,65.100,222.500,-0.812,2.820,0.156
2019-06-09-14:59:07.080733,0.644,-0.361,10.059,-14.100,18.100,147.000,-0.875,2.922,0.398
2019-06-09-14:59:07.100125,0.687,-0.311,10.210,3.000,58.700,197.400,-0.445,2.836,0.484
2019-06-09-14:59:07.119720,0.629,-0.345,9.942,2.200,34.700,156.500,-0.664,2.812,0.422
2019-06-09-14:59:07.139180,0.610,-0.328,10.081,-10.000,88.000,277.400,-0.508,2.773,0.469
2019-06-09-14:59:07.158601,0.569,-0.292,10.057,-30.700,-0.200,163.000,-0.570,2.906,0.445
2019-06-09-14:59:07.180044,0.658,-0.297,10.086,0.200,83.000,250.200,-0.609,2.930,0.133
2019-06-09-14:59:07.199664,0.627,-0.309,10.107,1.400,58.000,199.900,-0.594,2.859,0.461
2019-06-09-14:59:07.219184,0.639,-0.361,10.028,-2.700,59.500,221.100,-0.219,3.094,0.422
2019-06-09-14:59:07.238619,0.660,-0.357,10.076,0.400,58.200,202.000,-0.703,2.969,0.367
2019-06-09-14:59:07.258028,0.668,-0.366,10.129,1.300,51.300,181.000,-1.141,2.812,0.617
2019-06-09-14:59:07.277435,0.646,-0.299,10.033,1.700,56.300,183.000,-0.609,2.812,0.352
2019-06-09-14:59:07.297776,0.656,-0.301,10.107,-16.900,48.700,209.000,-0.883,2.969,0.188
2019-06-09-14:59:07.321795,0.682,-0.364,10.272,6.700,116.200,63.400,-0.641,2.969,0.469
2019-06-09-14:59:07.342925,0.634,-0.347,10.119,5.600,117.700,62.600,-0.414,2.969,0.523
2019-06-09-14:59:07.362672,0.687,-0.273,10.110,5.300,117.800,64.100,-0.656,2.812,0.641
2019-06-09-14:59:07.382358,0.636,-0.366,10.117,7.000,117.200,64.200,-0.266,2.930,0.352
2019-06-09-14:59:07.401873,0.653,-0.318,10.093,6.300,118.200,63.400,-0.758,2.883,0.648
2019-06-09-14:59:07.421406,0.629,-0.292,10.124,5.800,117.200,63.500,-0.812,2.734,0.508
2019-06-09-14:59:07.440907,0.651,-0.294,10.081,5.800,117.800,63.900,-0.516,2.797,0.492
2019-06-09-14:59:07.460364,0.665,-0.309,9.990,5.700,117.700,63.800,-0.688,2.969,0.375
2019-06-09-14:59:07.480016,0.591,-0.230,10.107,5.800,116.800,63.900,-0.750,2.773,0.617
2019-06-09-14:59:07.499630,0.648,-0.268,10.057,6.800,116.800,66.100,-0.469,2.883,0.266
2019-06-09-14:59:07.519200,0.680,-0.325,9.976,7.000,117.100,62.200,-0.547,2.922,0.375
2019-06-09-14:59:07.538733,0.584,-0.311,10.091,6.000,117.700,62.400,-0.836,2.945,0.398
2019-06-09-14:59:07.558201,0.629,-0.230,10.002,5.200,117.700,64.500,-0.469,2.516,0.312
2019-06-09-14:59:07.577726,0.634,-0.297,9.976,6.800,116.900,63.700,-0.773,2.836,0.570
2019-06-09-14:59:07.597153,0.625,-0.256,10.069,6.100,118.200,63.000,-0.523,3.047,0.484
2019-06-09-14:59:07.616655,0.610,-0.258,10.035,5.800,118.600,64.700,-0.758,2.617,0.492
2019-06-09-14:59:07.636146,0.658,-0.309,10.038,7.000,118.400,64.600,-0.922,2.789,0.281
2019-06-09-14:59:07.655649,0.641,-0.285,10.038,6.600,119.000,63.300,-0.328,2.945,0.367
2019-06-09-14:59:07.675080,0.641,-0.256,10.098,6.000,117.600,65.900,-0.828,2.906,0.266
2019-06-09-14:59:07.694561,0.682,-0.287,10.024,6.300,118.300,64.600,-0.375,2.789,0.188
2019-06-09-14:59:07.714106,0.617,-0.299,10.052,6.400,118.800,64.000,-0.445,3.008,0.266
2019-06-09-14:59:07.734802,0.639,-0.220,10.071,5.600,118.000,63.900,-0.656,2.750,0.398
2019-06-09-14:59:07.754454,0.675,-0.299,10.033,5.900,118.100,63.200,-0.633,2.758,0.578
2019-06-09-14:59:07.774345,0.646,-0.285,10.019,5.800,118.600,62.500,-0.672,3.133,0.422
2019-06-09-14:59:07.793872,0.644,-0.285,10.083,5.800,118.100,63.800,-0.562,2.930,0.492
2019-06-09-14:59:07.813331,0.646,-0.266,10.062,6.900,117.200,63.500,-0.781,3.070,0.391
2019-06-09-14:59:07.832933,0.636,-0.304,10.102,5.700,118.400,63.400,-0.312,3.055,0.336
2019-06-09-14:59:07.852438,0.632,-0.304,10.095,4.700,117.300,64.200,-0.289,2.875,0.461
2019-06-09-14:59:07.872026,0.632,-0.270,10.052,6.000,116.800,64.300,-0.312,3.016,0.484
2019-06-09-14:59:07.891654,0.656,-0.266,10.079,6.000,117.700,64.000,-0.711,2.922,0.391
2019-06-09-14:59:07.911174,0.622,-0.306,10.131,5.600,116.900,64.500,-1.031,2.789,0.484
2019-06-09-14:59:07.930690,0.656,-0.270,10.067,5.500,117.700,65.000,-0.391,2.734,0.375
2019-06-09-14:59:07.950142,0.660,-0.318,10.126,6.400,118.300,63.100,-0.609,2.859,0.289
2019-06-09-14:59:07.969781,0.653,-0.309,10.083,6.000,118.200,63.600,-0.641,2.734,0.367
2019-06-09-14:59:07.989221,0.625,-0.266,10.069,6.100,118.300,63.800,-0.828,2.711,-0.055
2019-06-09-14:59:08.008629,0.660,-0.285,10.064,5.400,117.200,62.900,-0.617,2.945,0.336
2019-06-09-14:59:08.028098,0.646,-0.273,10.021,7.200,119.300,64.100,-0.836,2.922,0.531
2019-06-09-14:59:08.047609,0.617,-0.297,10.012,6.700,118.100,63.000,-0.688,2.844,0.508
2019-06-09-14:59:08.067034,0.648,-0.261,10.071,5.700,116.700,63.600,-0.633,2.773,0.688
2019-06-09-14:59:08.090428,0.636,-0.337,10.138,6.500,118.200,64.600,-1.023,2.969,0.367
2019-06-09-14:59:08.109890,0.625,-0.258,10.174,6.100,118.500,62.700,-0.508,2.688,0.523
2019-06-09-14:59:08.129493,0.641,-0.282,10.052,6.500,118.100,64.400,-0.844,3.016,0.484
2019-06-09-14:59:08.149027,0.641,-0.242,10.031,5.700,118.200,63.300,-0.609,2.961,0.422
2019-06-09-14:59:08.168451,0.605,-0.266,10.028,7.100,117.900,64.000,-0.531,2.883,0.438
2019-06-09-14:59:08.187965,0.632,-0.280,10.009,6.200,118.000,64.200,-0.969,2.992,0.461
2019-06-09-14:59:08.207402,0.670,-0.256,10.064,5.500,118.500,65.500,-0.953,2.836,0.570
2019-06-09-14:59:08.226811,0.615,-0.268,10.047,5.200,118.300,64.200,-0.836,2.945,0.336
2019-06-09-14:59:08.246300,0.641,-0.239,10.033,5.300,117.900,64.400,-0.539,2.797,0.375
2019-06-09-14:59:08.265810,0.644,-0.273,10.045,6.200,117.500,63.800,-0.688,2.883,0.570
2019-06-09-14:59:08.285242,0.651,-0.268,10.035,6.400,116.500,63.900,-0.422,2.961,0.367
2019-06-09-14:59:08.304662,0.629,-0.278,10.091,6.200,117.300,64.200,-0.562,2.758,0.391
2019-06-09-14:59:08.324152,0.665,-0.299,10.062,6.500,116.500,63.900,-0.836,2.906,0.492
2019-06-09-14:59:08.343671,0.651,-0.278,10.047,6.100,117.300,62.400,-0.547,2.922,0.375
2019-06-09-14:59:08.363256,0.639,-0.290,10.069,5.700,117.000,63.600,-0.250,2.797,0.289
2019-06-09-14:59:08.382786,0.656,-0.297,10.083,6.200,117.600,64.700,-0.445,2.984,0.664
2019-06-09-14:59:08.402314,0.651,-0.278,10.064,8.200,116.100,61.900,-0.852,2.984,0.328
2019-06-09-14:59:08.421786,0.632,-0.275,10.043,6.100,116.200,63.200,-0.758,2.773,0.438
2019-06-09-14:59:08.441346,0.634,-0.290,10.074,7.000,116.900,62.600,-0.570,3.117,0.570
2019-06-09-14:59:08.460790,0.677,-0.316,10.069,6.400,116.400,62.400,-0.766,3.008,0.461
2019-06-09-14:59:08.480195,0.656,-0.313,10.102,6.600,117.500,64.200,-0.609,2.945,0.258
2019-06-09-14:59:08.499675,0.656,-0.330,10.126,6.800,117.400,64.400,-0.508,2.922,0.242
2019-06-09-14:59:08.519092,0.656,-0.342,10.095,6.600,117.200,65.100,-0.828,2.930,0.391
2019-06-09-14:59:08.539005,0.644,-0.287,10.093,6.400,116.100,63.700,-0.586,2.789,0.195
2019-06-09-14:59:08.558599,0.644,-0.285,10.112,6.800,117.000,64.000,-0.562,2.922,0.289
2019-06-09-14:59:08.578113,0.651,-0.287,10.067,6.800,117.100,63.100,-0.625,3.008,0.156
2019-06-09-14:59:08.597626,0.627,-0.290,10.038,5.600,116.400,64.000,-0.547,3.031,0.195
2019-06-09-14:59:08.617060,0.639,-0.270,10.057,6.200,116.200,63.700,-0.930,2.836,0.578
2019-06-09-14:59:08.636553,0.651,-0.292,10.045,7.000,116.200,65.100,-0.562,2.922,0.312
2019-06-09-14:59:08.656161,0.634,-0.287,10.074,6.100,117.900,65.100,-0.688,2.992,0.375
2019-06-09-14:59:08.675614,0.634,-0.268,10.050,5.900,117.100,64.600,-0.445,2.820,0.305
2019-06-09-14:59:08.697121,0.648,-0.292,10.031,5.700,117.400,64.000,-0.531,2.727,0.555
2019-06-09-14:59:08.716628,0.634,-0.263,10.038,6.300,117.000,64.600,-0.875,2.750,0.336
2019-06-09-14:59:08.736155,0.639,-0.280,10.067,6.300,116.900,63.100,-0.602,3.078,0.242
2019-06-09-14:59:08.755661,0.636,-0.266,10.035,6.600,117.200,62.700,-0.617,2.797,0.508
2019-06-09-14:59:08.775088,0.651,-0.256,10.000,6.200,117.600,63.300,-0.789,2.844,0.352
2019-06-09-14:59:08.794510,0.646,-0.261,10.024,6.600,118.000,65.000,-0.438,2.797,0.414
2019-06-09-14:59:08.813915,0.625,-0.275,10.024,6.300,118.600,63.600,-0.617,2.992,0.461
2019-06-09-14:59:08.833330,0.658,-0.268,10.024,6.000,117.100,63.400,-0.750,2.688,0.531
2019-06-09-14:59:08.852774,0.629,-0.294,10.055,5.900,118.100,62.700,-0.664,3.047,0.391
2019-06-09-14:59:08.872382,0.641,-0.256,10.038,6.800,117.600,63.800,-0.711,2.836,0.469
2019-06-09-14:59:08.891909,0.632,-0.273,10.024,5.600,118.000,62.800,-0.586,2.930,0.289
2019-06-09-14:59:08.911372,0.644,-0.282,10.016,5.200,118.200,62.100,-0.461,2.930,0.305
2019-06-09-14:59:08.931260,0.648,-0.244,10.035,6.800,116.600,64.200,-0.633,2.758,0.727
2019-06-09-14:59:08.951070,0.646,-0.258,10.059,6.300,118.400,64.400,-0.812,3.094,0.328
2019-06-09-14:59:08.970640,0.663,-0.287,10.074,5.400,117.300,63.800,-0.688,3.031,0.391
2019-06-09-14:59:08.990075,0.648,-0.280,10.105,7.000,117.700,64.400,-0.609,2.586,0.438
2019-06-09-14:59:09.009668,0.660,-0.287,10.086,6.800,117.300,64.800,-0.594,2.945,0.508
2019-06-09-14:59:09.029115,0.651,-0.294,10.114,6.700,117.700,63.900,-0.805,2.820,0.328
2019-06-09-14:59:09.048536,0.629,-0.273,10.110,6.700,117.800,64.400,-0.727,2.922,0.531
2019-06-09-14:59:09.068022,0.670,-0.311,10.105,6.800,116.500,64.800,-0.727,2.906,0.531
2019-06-09-14:59:09.087442,0.658,-0.316,10.093,6.100,117.700,63.300,-0.547,3.164,0.258
2019-06-09-14:59:09.106849,0.641,-0.287,10.086,5.600,117.000,64.300,-0.109,3.133,0.617
2019-06-09-14:59:09.126303,0.675,-0.290,10.086,6.400,117.100,64.700,-0.406,3.164,0.336
2019-06-09-14:59:09.145830,0.646,-0.301,10.064,6.200,117.500,63.900,-0.477,3.008,0.352
2019-06-09-14:59:09.165338,0.658,-0.292,10.081,6.700,116.800,63.000,-0.391,2.820,0.055
2019-06-09-14:59:09.184842,0.656,-0.290,10.088,6.000,116.800,63.300,-0.711,2.734,0.336
2019-06-09-14:59:09.204334,0.663,-0.290,10.059,7.600,116.700,64.100,-0.539,2.922,0.242
2019-06-09-14:59:09.223792,0.636,-0.297,10.064,6.600,117.400,63.200,-0.898,2.820,0.414
2019-06-09-14:59:09.243201,0.648,-0.254,10.081,7.300,115.500,63.700,-0.641,2.758,0.398
2019-06-09-14:59:09.262625,0.651,-0.282,10.040,5.900,117.100,64.500,-0.297,2.648,0.398
2019-06-09-14:59:09.282120,0.622,-0.280,10.067,6.100,116.300,63.600,-0.773,2.758,0.367
2019-06-09-14:59:09.301625,0.660,-0.282,10.067,6.600,116.400,63.100,-0.375,2.797,0.258
2019-06-09-14:59:09.321038,0.660,-0.292,10.028,6.100,117.700,62.500,-0.656,2.945,0.422
2019-06-09-14:59:09.340453,0.627,-0.268,10.028,6.700,116.100,63.600,-0.359,3.117,0.461
2019-06-09-14:59:09.359987,0.660,-0.261,10.043,6.200,116.000,63.800,-0.617,2.562,0.289
2019-06-09-14:59:09.379655,0.651,-0.256,10.074,6.800,117.100,64.400,-0.562,2.750,0.336
2019-06-09-14:59:09.399128,0.639,-0.270,10.047,5.800,117.600,63.800,-0.492,2.727,0.617
2019-06-09-14:59:09.418546,0.639,-0.249,10.021,6.400,117.100,63.600,-0.328,2.836,0.305
2019-06-09-14:59:09.437972,0.689,-0.325,10.043,6.200,118.200,63.600,-0.492,2.961,0.367
2019-06-09-14:59:09.457381,0.680,-0.349,10.136,5.900,116.800,63.200,-0.539,2.969,0.578
2019-06-09-14:59:09.476845,0.670,-0.337,10.158,6.300,116.900,106.600,-1.102,2.773,0.266
2019-06-09-14:59:09.496348,0.644,-0.457,10.095,-21.500,-9.200,111.400,-0.461,2.758,0.461
2019-06-09-14:59:09.515904,0.651,-0.340,10.119,-7.600,28.200,162.000,-0.930,3.008,0.438
2019-06-09-14:59:09.535354,0.656,-0.345,10.150,-13.900,45.200,204.400,-0.969,2.961,0.578
2019-06-09-14:59:09.554791,0.684,-0.323,10.146,2.300,47.600,198.300,-0.641,2.969,0.578
2019-06-09-14:59:09.574277,0.632,-0.342,10.102,-15.800,46.200,204.200,-0.539,3.016,0.469
2019-06-09-14:59:09.593769,0.668,-0.318,10.110,-12.000,-7.200,129.500,-0.906,2.992,0.391
2019-06-09-14:59:09.613213,0.560,-0.234,10.107,5.000,71.800,142.300,-0.469,2.922,0.461
2019-06-09-14:59:09.632707,0.670,-0.316,10.105,-7.400,64.700,168.100,-0.836,2.703,0.461
2019-06-09-14:59:09.652144,0.644,-0.318,10.086,-10.500,49.400,150.500,-0.836,3.078,0.312
2019-06-09-14:59:09.671694,0.658,-0.306,10.105,-7.400,41.200,114.100,-0.297,2.961,0.672
2019-06-09-14:59:09.691272,0.670,-0.318,10.086,4.600,96.000,165.800,-1.016,2.773,0.484
2019-06-09-14:59:09.710752,0.641,-0.311,10.038,-11.500,42.800,139.700,-0.758,2.578,0.398
2019-06-09-14:59:09.730283,0.660,-0.297,10.107,-18.800,28.500,181.400,-0.398,2.711,0.484
2019-06-09-14:59:09.750194,0.677,-0.290,10.083,17.300,108.500,75.100,-0.805,2.812,0.242
2019-06-09-14:59:09.769702,0.656,-0.292,10.047,11.600,113.800,167.200,-1.234,2.820,0.172
2019-06-09-14:59:09.789335,0.644,-0.285,10.067,7.700,105.200,171.100,-0.898,2.844,0.422
2019-06-09-14:59:09.808846,0.670,-0.285,10.031,0.100,80.900,168.900,-0.273,2.844,0.484
2019-06-09-14:59:09.828347,0.634,-0.292,10.071,-6.800,51.800,136.000,-0.930,3.102,0.312
2019-06-09-14:59:09.847873,0.615,-0.261,10.040,-1.900,68.100,153.500,-0.648,3.008,0.328
2019-06-09-14:59:09.867477,0.663,-0.266,10.064,-1.900,69.800,149.200,-0.609,2.836,0.328
2019-06-09-14:59:09.887016,0.665,-0.347,10.069,2.900,80.600,149.700,-0.664,3.016,0.461
2019-06-09-14:59:09.906471,0.672,-0.347,10.138,-7.300,50.900,139.300,-0.711,3.078,0.461
2019-06-09-14:59:09.926007,0.680,-0.328,10.148,8.700,75.000,94.000,-0.992,2.883,0.125
2019-06-09-14:59:09.945449,0.670,-0.328,10.138,8.200,101.600,171.200,-0.398,2.727,0.211
2019-06-09-14:59:09.964884,0.687,-0.345,10.155,0.500,82.600,167.800,-0.508,2.859,0.391
2019-06-09-14:59:09.984379,0.672,-0.323,10.122,2.600,87.000,173.800,-0.727,2.844,0.211
2019-06-09-14:59:10.003873,0.672,-0.345,10.155,9.000,84.100,121.700,-0.703,2.812,0.484
2019-06-09-14:59:10.023325,0.677,-0.340,10.131,1.700,107.700,239.300,-0.531,2.562,0.336
2019-06-09-14:59:10.042741,0.663,-0.337,10.081,-14.000,0.600,60.500,-0.703,2.734,0.266
2019-06-09-14:59:10.062133,0.670,-0.333,10.146,-9.700,96.500,251.100,-0.586,2.859,0.352
2019-06-09-14:59:10.081730,0.672,-0.321,10.122,-5.200,28.300,68.100,-0.539,2.984,0.445
2019-06-09-14:59:10.101269,0.682,-0.340,10.177,-8.300,52.500,129.100,-0.547,2.711,0.375
2019-06-09-14:59:10.120706,0.670,-0.321,10.143,-2.800,78.500,174.000,-0.492,2.773,0.328
2019-06-09-14:59:10.140875,0.665,-0.318,10.124,-4.500,68.800,169.900,-0.422,2.711,0.367
2019-06-09-14:59:10.160398,0.677,-0.328,10.143,-5.300,55.200,133.500,-0.438,2.703,0.172
2019-06-09-14:59:10.181857,0.660,-0.328,10.074,-8.500,45.900,118.200,-0.852,2.820,0.234
2019-06-09-14:59:10.201445,0.629,-0.306,10.021,2.900,87.500,169.900,-0.805,2.945,0.367
2019-06-09-14:59:10.220893,0.668,-0.318,10.122,-0.100,38.100,80.400,-0.281,3.016,0.508
2019-06-09-14:59:10.240304,0.651,-0.316,10.119,2.800,108.000,212.100,-0.594,3.047,0.461
2019-06-09-14:59:10.259713,0.651,-0.313,10.083,1.100,104.300,220.200,-0.789,2.984,0.398
2019-06-09-14:59:10.279218,0.665,-0.301,10.088,10.100,100.900,164.800,-0.906,2.984,0.602
2019-06-09-14:59:10.298689,0.663,-0.318,10.067,7.600,53.900,94.700,-0.594,2.859,0.305
2019-06-09-14:59:10.318136,0.658,-0.297,10.098,-5.600,56.300,155.000,-0.875,2.984,0.188
2019-06-09-14:59:10.337656,0.639,-0.309,10.100,-6.800,57.800,156.600,-1.062,3.094,0.375
2019-06-09-14:59:10.357142,0.627,-0.266,10.045,-5.200,60.900,160.200,-0.602,3.055,0.336
2019-06-09-14:59:10.376708,0.634,-0.275,10.040,-6.600,60.200,159.600,-0.781,2.703,0.602
2019-06-09-14:59:10.396168,0.684,-0.285,10.081,-2.900,63.800,156.900,-0.664,2.906,0.422
2019-06-09-14:59:10.415856,0.665,-0.309,10.038,-7.900,56.500,167.300,-0.539,2.727,0.555
2019-06-09-14:59:10.435325,0.658,-0.304,10.136,13.800,116.800,197.400,-0.836,2.930,0.367
2019-06-09-14:59:10.454767,0.696,-0.333,10.165,-7.400,107.400,273.200,-0.805,2.992,0.414
2019-06-09-14:59:10.474298,0.689,-0.318,10.076,-27.700,33.200,193.000,-0.883,2.875,0.156
2019-06-09-14:59:10.493721,0.668,-0.333,10.158,-11.900,96.800,273.500,-0.445,2.898,0.188
2019-06-09-14:59:10.513203,0.672,-0.342,10.105,-21.000,-9.600,79.800,-0.547,2.992,0.258
2019-06-09-14:59:10.532639,0.694,-0.323,10.079,-24.400,-16.100,67.000,-0.875,2.945,0.398
2019-06-09-14:59:10.552074,0.672,-0.328,10.172,6.800,125.400,252.500,-0.805,2.820,0.281
2019-06-09-14:59:10.571574,0.680,-0.359,10.122,19.900,85.400,128.900,-0.344,2.984,0.312
2019-06-09-14:59:10.590971,0.701,-0.361,10.129,-12.500,-14.100,56.700,-0.805,2.797,0.555
2019-06-09-14:59:10.610429,0.644,-0.342,10.126,17.600,116.200,208.000,-0.711,2.969,0.469
2019-06-09-14:59:10.629919,0.646,-0.333,10.102,10.000,68.600,148.300,-0.297,2.859,0.305
2019-06-09-14:59:10.649427,0.646,-0.349,10.155,-9.500,11.800,113.700,-0.109,2.555,0.664
2019-06-09-14:59:10.668861,0.689,-0.330,10.131,3.600,85.200,221.300,-0.414,2.773,0.492
2019-06-09-14:59:10.688269,0.660,-0.337,10.095,-15.900,19.200,152.400,-0.570,2.945,0.445
2019-06-09-14:59:10.707832,0.665,-0.316,10.122,-4.700,13.500,102.400,-0.750,2.906,0.375
2019-06-09-14:59:10.727361,0.677,-0.321,10.162,3.000,43.700,147.000,-0.367,2.898,0.281
2019-06-09-14:59:10.746795,0.644,-0.306,10.124,3.300,52.600,159.500,-0.852,2.648,0.234
2019-06-09-14:59:10.766203,0.684,-0.309,10.088,0.400,62.700,190.200,-0.656,2.984,0.336
2019-06-09-14:59:10.785636,0.660,-0.285,10.162,0.800,61.800,190.700,-0.375,2.875,0.312
2019-06-09-14:59:10.805068,0.656,-0.285,10.107,0.700,56.400,174.300,-0.953,2.922,0.414
2019-06-09-14:59:10.824525,0.658,-0.297,10.040,-5.300,56.400,191.100,-0.688,3.008,0.312
2019-06-09-14:59:10.844005,0.656,-0.301,10.074,3.400,45.900,155.200,-0.906,2.664,0.508
2019-06-09-14:59:10.863493,0.660,-0.282,10.081,-8.700,37.500,164.500,-0.398,2.820,0.336
2019-06-09-14:59:10.883000,0.687,-0.297,10.076,-2.600,41.500,159.500,-0.539,2.625,0.531
2019-06-09-14:59:10.902434,0.675,-0.278,10.062,-2.900,58.500,192.700,-0.320,2.961,0.305
2019-06-09-14:59:10.921912,0.629,-0.309,10.091,-8.600,66.400,224.400,-0.461,2.922,0.109
2019-06-09-14:59:10.942020,0.675,-0.287,10.069,-7.100,26.900,147.500,-0.531,2.961,0.258
2019-06-09-14:59:10.961767,0.675,-0.299,10.083,-18.200,42.000,188.400,-0.453,3.156,0.352
2019-06-09-14:59:10.981290,0.668,-0.301,10.136,-1.000,66.400,197.200,-0.227,2.945,0.367
2019-06-09-14:59:11.000703,0.694,-0.337,10.143,-3.800,42.800,141.500,-0.586,2.930,0.484
2019-06-09-14:59:11.020158,0.689,-0.330,10.131,6.200,58.600,154.000,-0.586,2.820,0.195
2019-06-09-14:59:11.039659,0.677,-0.301,10.136,-3.200,23.900,108.500,-0.352,2.844,0.234
2019-06-09-14:59:11.059085,0.648,-0.323,10.074,-3.200,89.800,230.000,-1.078,2.875,0.445
2019-06-09-14:59:11.078487,0.665,-0.321,10.107,4.900,88.000,210.200,-0.859,2.922,0.289
2019-06-09-14:59:11.097894,0.672,-0.306,10.062,-5.100,88.100,232.200,-0.469,3.070,0.414
2019-06-09-14:59:11.117300,0.656,-0.299,10.088,3.100,41.700,133.400,-0.852,2.859,0.422
2019-06-09-14:59:11.136850,0.656,-0.342,10.193,3.500,39.500,128.900,-0.570,2.906,0.523
2019-06-09-14:59:11.156295,0.653,-0.337,10.153,-2.500,92.200,233.000,-0.469,2.750,0.414
2019-06-09-14:59:11.175724,0.653,-0.342,10.191,-16.100,16.300,109.800,-0.875,2.859,0.312
2019-06-09-14:59:11.195155,0.648,-0.263,10.129,-6.400,48.300,154.000,-0.656,2.703,0.195
2019-06-09-14:59:11.214579,0.627,-0.256,10.038,-10.400,43.800,169.900,-0.977,2.789,0.375
2019-06-09-14:59:11.234133,0.663,-0.254,10.055,-7.600,64.900,188.900,-0.688,2.945,0.289
2019-06-09-14:59:11.253566,0.656,-0.278,10.095,-6.900,41.000,151.800,-0.750,2.688,0.148
2019-06-09-14:59:11.273009,0.608,-0.275,10.047,-4.700,43.300,155.900,-0.461,2.820,0.484
2019-06-09-14:59:11.292427,0.625,-0.237,9.966,-9.200,54.300,183.700,-0.992,2.750,0.289
2019-06-09-14:59:11.312465,0.620,-0.246,10.057,-8.100,51.900,181.800,-0.641,3.070,0.461
2019-06-09-14:59:11.333329,0.622,-0.275,10.024,-8.500,47.600,156.300,-0.906,2.844,0.234
2019-06-09-14:59:11.355849,0.627,-0.232,9.971,1.200,78.900,200.000,-0.359,3.133,0.469
2019-06-09-14:59:11.376019,0.677,-0.321,10.076,-15.900,24.100,131.300,-0.469,2.898,0.703
2019-06-09-14:59:11.395560,0.646,-0.311,10.081,-9.900,75.500,224.100,-0.422,2.820,0.336
2019-06-09-14:59:11.415034,0.656,-0.299,10.098,-3.500,30.700,125.100,-0.609,2.945,0.602
2019-06-09-14:59:11.434552,0.665,-0.316,10.126,-4.700,31.000,130.000,-0.594,3.180,0.375
2019-06-09-14:59:11.454079,0.663,-0.304,10.062,2.600,55.800,154.300,-0.523,3.008,0.508
2019-06-09-14:59:11.473605,0.629,-0.318,10.112,-11.400,74.100,226.400,-0.219,2.844,0.445
2019-06-09-14:59:11.493088,0.622,-0.285,10.050,-12.500,4.800,91.000,-0.688,2.875,0.438
2019-06-09-14:59:11.512591,0.656,-0.301,9.992,-0.900,52.500,156.800,-0.609,2.930,0.219
2019-06-09-14:59:11.532082,0.636,-0.294,10.055,-8.800,2.200,81.400,-0.250,2.930,0.523
2019-06-09-14:59:11.551788,0.632,-0.311,10.107,-7.900,72.800,207.900,-0.750,2.859,0.312
2019-06-09-14:59:11.571313,0.687,-0.325,10.067,-12.400,85.900,265.200,-0.531,2.984,0.461
2019-06-09-14:59:11.590739,0.641,-0.292,10.026,1.000,88.400,226.300,-0.680,2.945,0.211
2019-06-09-14:59:11.610162,0.660,-0.361,10.064,-22.800,12.600,154.900,-0.539,2.969,0.312
2019-06-09-14:59:11.629738,0.663,-0.366,10.158,-7.400,-7.000,77.500,-0.852,2.641,0.438
2019-06-09-14:59:11.649199,0.660,-0.337,10.074,9.100,94.600,240.800,-0.703,2.789,0.281
2019-06-09-14:59:11.668636,0.651,-0.316,10.138,6.000,95.700,259.700,-0.297,2.883,0.352
2019-06-09-14:59:11.690084,0.689,-0.311,10.052,7.500,94.500,250.600,-0.156,2.812,0.195
2019-06-09-14:59:11.709760,0.663,-0.299,10.071,4.200,39.100,151.700,-0.258,3.047,0.617
2019-06-09-14:59:11.729283,0.651,-0.345,10.205,-1.400,18.600,132.700,-1.047,2.703,0.352
2019-06-09-14:59:11.748791,0.663,-0.340,10.045,-1.200,65.400,216.700,-0.734,2.812,0.547
2019-06-09-14:59:11.768225,0.663,-0.313,10.136,5.200,65.500,201.900,-0.492,2.844,0.398
2019-06-09-14:59:11.787735,0.677,-0.352,10.119,-8.900,14.200,132.800,-0.586,2.906,0.578
2019-06-09-14:59:11.807163,0.651,-0.378,10.074,-10.400,49.400,207.700,-0.562,2.859,0.258
2019-06-09-14:59:11.826576,0.663,-0.340,10.124,0.700,21.900,134.800,-0.797,3.102,0.414
2019-06-09-14:59:11.846094,0.644,-0.294,10.062,-0.700,69.400,218.700,-0.852,2.898,0.602
2019-06-09-14:59:11.865705,0.648,-0.380,10.174,3.900,44.200,159.200,-0.586,2.969,0.336
2019-06-09-14:59:11.885221,0.634,-0.359,10.114,-8.800,52.000,205.700,-0.609,2.703,0.391
2019-06-09-14:59:11.904662,0.663,-0.383,10.105,-5.600,59.400,209.900,-0.523,3.117,0.484
2019-06-09-14:59:11.924165,0.634,-0.258,10.107,1.500,56.900,193.900,-0.711,2.906,0.508
2019-06-09-14:59:11.943654,0.670,-0.287,9.959,-11.900,45.300,197.900,-0.391,2.844,0.352
2019-06-09-14:59:11.963095,0.615,-0.321,9.985,-14.200,29.000,172.800,-0.430,3.008,0.398
2019-06-09-14:59:11.982508,0.622,-0.290,10.064,4.200,79.900,227.500,-0.688,2.898,0.266
2019-06-09-14:59:12.001926,0.651,-0.287,10.129,6.400,39.200,152.700,-0.609,2.703,0.461
2019-06-09-14:59:12.021333,0.617,-0.304,9.997,-14.800,30.400,178.200,-0.617,2.922,0.281
2019-06-09-14:59:12.040735,0.636,-0.266,10.069,-6.900,66.900,230.500,-0.664,2.898,0.188
2019-06-09-14:59:12.060209,0.672,-0.292,10.076,-17.100,-19.500,84.000,-0.570,2.844,0.469
2019-06-09-14:59:12.079831,0.636,-0.316,9.983,-24.100,69.100,245.900,-0.703,2.859,0.438
2019-06-09-14:59:12.099377,0.648,-0.301,10.150,-0.500,14.700,89.500,-0.688,2.992,0.258
2019-06-09-14:59:12.118816,0.677,-0.273,10.064,8.900,92.100,229.500,-0.305,2.734,0.258
2019-06-09-14:59:12.138714,0.689,-0.306,10.057,-29.500,22.600,174.900,-0.352,3.266,0.445
2019-06-09-14:59:12.158587,0.641,-0.273,10.074,-15.200,-0.700,89.600,-1.266,2.875,0.570
2019-06-09-14:59:12.178075,0.641,-0.268,10.000,-6.900,92.000,268.500,-0.367,2.961,0.461
2019-06-09-14:59:12.197583,0.653,-0.297,10.126,-13.500,-0.700,89.300,-0.289,2.844,0.547
2019-06-09-14:59:12.216988,0.663,-0.321,10.136,2.800,35.200,117.000,-0.789,2.758,0.469
2019-06-09-14:59:12.236477,0.622,-0.337,10.002,-20.700,92.800,299.400,-0.617,2.820,0.375
2019-06-09-14:59:12.256172,0.684,-0.323,10.074,-1.800,123.300,310.900,-1.141,2.922,0.664
2019-06-09-14:59:12.275688,0.668,-0.313,10.167,11.700,22.600,88.500,-0.461,2.906,0.484
2019-06-09-14:59:12.295182,0.672,-0.340,10.081,16.100,117.100,250.600,-1.031,2.984,0.312
2019-06-09-14:59:12.314645,0.689,-0.345,10.153,12.900,121.300,267.900,-0.758,2.969,0.547
2019-06-09-14:59:12.334169,0.658,-0.364,10.114,15.800,112.000,245.400,-0.148,2.750,0.336
2019-06-09-14:59:12.353645,0.634,-0.287,10.105,14.900,114.900,247.600,-0.586,2.727,0.484
2019-06-09-14:59:12.373236,0.656,-0.297,9.913,-24.200,-32.400,59.200,-0.359,3.008,0.281
2019-06-09-14:59:12.392784,0.639,-0.256,10.110,5.000,127.200,299.000,-0.547,3.180,0.602
2019-06-09-14:59:12.412203,0.603,-0.306,9.957,-37.800,9.200,163.700,-0.594,2.906,0.352
2019-06-09-14:59:12.431763,0.675,-0.239,10.067,5.200,73.000,203.300,-0.547,2.969,0.266
2019-06-09-14:59:12.451265,0.625,-0.318,10.043,-39.000,9.600,168.400,-0.773,2.875,0.758
2019-06-09-14:59:12.470775,0.668,-0.239,10.062,13.600,123.600,271.700,-0.203,2.898,0.445
2019-06-09-14:59:12.490205,0.632,-0.225,10.002,17.100,115.700,247.800,-0.344,2.945,0.289
2019-06-09-14:59:12.509683,0.632,-0.294,10.055,-12.400,110.800,316.700,-0.445,2.859,0.328
2019-06-09-14:59:12.529115,0.629,-0.292,10.081,-30.400,-27.900,94.200,-0.375,2.812,0.422
2019-06-09-14:59:12.549041,0.665,-0.290,10.086,-22.500,-49.000,37.500,-0.461,2.961,0.242
2019-06-09-14:59:12.568625,0.634,-0.282,9.916,-13.400,96.600,312.000,-0.297,3.156,0.375
2019-06-09-14:59:12.588081,0.644,-0.304,10.069,-30.200,-32.900,81.600,-0.422,2.750,0.352
2019-06-09-14:59:12.607612,0.648,-0.297,10.033,24.700,65.300,163.800,-0.711,3.008,0.312
2019-06-09-14:59:12.627093,0.675,-0.318,10.002,-30.300,-32.400,86.400,-0.422,2.969,0.258
2019-06-09-14:59:12.646529,0.670,-0.299,10.059,-1.200,114.200,319.000,-0.484,2.859,0.523
2019-06-09-14:59:12.666119,0.651,-0.273,10.131,21.900,105.400,240.600,-0.594,3.016,0.312
2019-06-09-14:59:12.685588,0.656,-0.266,10.105,18.100,16.300,94.800,-0.617,2.922,0.062
2019-06-09-14:59:12.705064,0.672,-0.304,10.012,-34.500,3.500,172.300,-0.773,2.727,0.391
2019-06-09-14:59:12.724526,0.644,-0.297,10.069,-33.300,23.400,205.300,-0.820,3.352,0.203
2019-06-09-14:59:12.744012,0.663,-0.256,10.189,-19.400,-36.500,53.300,-0.922,2.930,0.289
2019-06-09-14:59:12.763651,0.680,-0.287,10.043,-18.800,-35.300,50.500,-0.953,2.750,0.523
2019-06-09-14:59:12.783213,0.632,-0.352,10.114,5.700,-13.400,55.100,-0.664,3.156,0.375
2019-06-09-14:59:12.802685,0.641,-0.285,10.122,-33.700,22.400,205.000,-0.594,2.906,0.289
2019-06-09-14:59:12.822126,0.663,-0.292,10.045,20.400,32.300,118.500,-0.680,2.781,0.008
2019-06-09-14:59:12.841664,0.622,-0.313,10.064,-33.000,30.700,224.100,-0.547,2.945,0.602
2019-06-09-14:59:12.861374,0.682,-0.292,10.093,15.800,80.900,215.000,-0.625,2.922,0.484
2019-06-09-14:59:12.880969,0.596,-0.287,10.071,-23.800,-32.000,75.300,-0.812,3.117,0.555
2019-06-09-14:59:12.900512,0.648,-0.268,10.028,8.300,79.400,218.000,-0.789,2.984,0.242
2019-06-09-14:59:12.919961,0.560,-0.316,10.067,-8.200,71.000,238.300,-0.703,2.922,0.242
2019-06-09-14:59:12.939484,0.610,-0.254,9.983,-23.000,40.900,232.400,-0.766,3.070,0.461
2019-06-09-14:59:12.958904,0.629,-0.246,10.026,21.200,99.500,233.700,-0.727,2.820,0.523
2019-06-09-14:59:12.978369,0.629,-0.301,10.002,-30.900,-21.300,91.800,-0.906,2.789,0.289
2019-06-09-14:59:12.997870,0.632,-0.249,10.019,17.400,124.200,271.500,-0.734,2.750,0.336
2019-06-09-14:59:13.017284,0.675,-0.254,10.086,18.100,47.800,118.900,-0.461,2.797,0.461
2019-06-09-14:59:13.036690,0.629,-0.275,10.012,-38.800,7.100,183.400,-1.031,2.812,0.266
2019-06-09-14:59:13.056096,0.648,-0.297,10.050,-8.700,121.900,323.500,-0.398,3.078,0.328
2019-06-09-14:59:13.075544,0.620,-0.251,9.949,-11.200,120.400,324.600,-0.531,2.875,0.492
2019-06-09-14:59:13.099165,0.663,-0.309,10.093,15.000,26.600,106.900,-0.977,3.047,0.391
2019-06-09-14:59:13.118633,0.656,-0.316,10.071,-28.900,-40.300,68.300,-0.594,2.703,0.445
2019-06-09-14:59:13.138186,0.639,-0.273,10.110,-15.200,-39.400,36.700,-0.656,2.969,0.523
2019-06-09-14:59:13.157710,0.615,-0.290,9.968,-23.000,99.900,316.400,-0.547,2.758,0.312
2019-06-09-14:59:13.179186,0.610,-0.280,10.055,-6.200,103.600,303.400,-0.445,2.906,0.312
2019-06-09-14:59:13.198711,0.608,-0.278,9.968,20.300,128.200,283.800,-0.648,3.055,0.547
2019-06-09-14:59:13.218273,0.670,-0.273,10.035,24.200,105.400,217.100,-0.445,2.617,0.578
2019-06-09-14:59:13.237957,0.653,-0.294,10.040,14.700,138.500,303.600,-0.492,2.773,0.594
2019-06-09-14:59:13.257431,0.651,-0.316,10.076,-20.600,-47.300,24.000,-0.336,3.047,0.195
2019-06-09-14:59:13.276961,0.608,-0.301,10.062,-3.100,107.200,289.600,-0.492,2.844,0.312
2019-06-09-14:59:13.296439,0.687,-0.290,10.052,-33.200,24.000,189.000,-0.570,2.703,0.422
2019-06-09-14:59:13.315952,0.641,-0.266,10.047,-33.500,22.400,181.000,-0.883,2.992,0.570
2019-06-09-14:59:13.335388,0.615,-0.328,10.081,-33.500,26.400,189.400,-0.727,2.773,0.312
2019-06-09-14:59:13.355201,0.648,-0.287,9.937,-33.900,22.600,179.400,-0.570,2.898,0.484
2019-06-09-14:59:13.374843,0.639,-0.318,10.093,-4.500,102.800,285.100,-0.469,2.883,0.547
2019-06-09-14:59:13.394462,0.629,-0.354,10.129,13.700,77.300,202.100,-0.648,2.992,0.219
2019-06-09-14:59:13.413916,0.646,-0.340,10.033,-5.600,-7.400,90.700,-0.586,2.789,0.289
2019-06-09-14:59:13.433380,0.639,-0.364,10.114,-30.300,26.200,182.300,-0.805,2.734,0.422
2019-06-09-14:59:13.452805,0.627,-0.349,10.064,-26.700,41.900,213.600,-0.953,2.820,0.422
2019-06-09-14:59:13.472280,0.639,-0.294,10.129,-15.600,-15.000,96.800,-0.922,2.664,0.391
2019-06-09-14:59:13.491765,0.706,-0.282,10.043,-19.700,68.200,260.100,-0.445,2.930,0.234
2019-06-09-14:59:13.511272,0.639,-0.278,10.098,-18.400,68.500,256.000,-0.750,2.672,0.328
2019-06-09-14:59:13.530705,0.615,-0.261,10.024,-21.500,54.900,232.600,-0.617,2.930,0.414
2019-06-09-14:59:13.550205,0.670,-0.285,10.102,-20.700,-9.600,111.800,-1.023,2.930,0.367
2019-06-09-14:59:13.569715,0.634,-0.328,10.076,1.800,96.700,266.000,-0.664,3.047,0.312
2019-06-09-14:59:13.589195,0.625,-0.242,10.026,-10.300,90.600,281.600,-0.711,3.031,0.398
2019-06-09-14:59:13.608696,0.634,-0.282,10.038,-10.200,87.200,274.600,-0.828,2.883,0.414
2019-06-09-14:59:13.628170,0.653,-0.266,10.033,7.200,80.000,222.900,-0.391,2.836,0.328
2019-06-09-14:59:13.647690,0.610,-0.246,10.009,-19.500,-6.200,114.700,-0.609,2.961,0.445
2019-06-09-14:59:13.667146,0.641,-0.215,10.026,13.200,55.400,166.600,-0.711,2.922,0.367
2019-06-09-14:59:13.686565,0.636,-0.285,10.012,9.600,66.900,198.700,-0.805,2.734,0.461
2019-06-09-14:59:13.706171,0.636,-0.290,10.079,8.200,73.500,219.100,-0.328,2.812,0.234
2019-06-09-14:59:13.725627,0.644,-0.215,10.093,9.800,74.500,217.800,-0.445,2.859,0.281
2019-06-09-14:59:13.745711,0.665,-0.280,9.995,2.000,75.900,239.700,-1.023,2.836,0.469
2019-06-09-14:59:13.765320,0.610,-0.306,10.119,-1.700,71.800,247.100,-0.914,3.008,0.367
2019-06-09-14:59:13.784771,0.632,-0.306,10.071,3.600,37.700,153.100,-0.344,2.664,0.367
2019-06-09-14:59:13.804347,0.651,-0.268,10.002,-10.600,1.000,121.700,-0.391,2.898,0.258
2019-06-09-14:59:13.823767,0.656,-0.294,10.074,5.100,46.000,163.100,-0.789,2.773,0.336
2019-06-09-14:59:13.843190,0.605,-0.270,10.024,-7.200,70.900,252.400,-0.711,2.883,0.438
2019-06-09-14:59:13.862792,0.639,-0.287,10.055,3.400,61.200,202.200,-0.562,2.391,0.445
2019-06-09-14:59:13.882399,0.658,-0.282,10.047,-3.700,66.400,237.400,-0.508,2.984,0.281
2019-06-09-14:59:13.901953,0.648,-0.282,10.074,2.200,56.700,188.900,-0.875,2.875,0.133
2019-06-09-14:59:13.921498,0.668,-0.263,10.102,3.700,59.800,199.900,-0.172,2.844,0.281
2019-06-09-14:59:13.940972,0.627,-0.328,10.071,-10.400,11.000,133.600,-0.781,2.898,0.367
2019-06-09-14:59:13.960423,0.672,-0.301,10.095,-5.900,17.300,138.400,-0.453,3.047,0.219
2019-06-09-14:59:13.979844,0.622,-0.275,10.158,-14.700,28.600,176.000,-0.711,3.008,0.312
2019-06-09-14:59:13.999309,0.648,-0.352,9.992,-8.500,22.900,150.000,-0.570,2.961,0.328
2019-06-09-14:59:14.018746,0.639,-0.342,10.012,-0.500,42.100,170.000,-0.711,2.883,0.367
2019-06-09-14:59:14.038156,0.641,-0.280,9.992,-4.400,24.000,143.800,-0.977,2.625,0.523
2019-06-09-14:59:14.057748,0.703,-0.275,10.074,0.800,62.800,216.500,-0.508,2.711,0.445
2019-06-09-14:59:14.077174,0.627,-0.268,9.954,-1.000,63.900,224.300,-0.469,2.812,0.336
2019-06-09-14:59:14.096570,0.658,-0.285,10.052,-1.900,65.800,229.700,-0.539,3.055,0.578
2019-06-09-14:59:14.116120,0.639,-0.287,9.971,-9.500,26.800,151.600,-0.672,3.273,0.320
2019-06-09-14:59:14.135588,0.632,-0.249,10.086,-4.500,28.500,145.000,-0.656,2.883,0.312
2019-06-09-14:59:14.155015,0.632,-0.218,10.074,-3.300,37.200,156.300,-0.898,2.414,0.352
2019-06-09-14:59:14.174443,0.696,-0.352,10.000,-16.300,52.500,205.300,-0.875,2.688,0.328
2019-06-09-14:59:14.193861,0.608,-0.313,10.045,-15.600,29.800,177.700,-0.750,2.906,0.375
2019-06-09-14:59:14.213341,0.668,-0.268,10.143,-2.400,63.900,225.200,-0.633,2.727,0.578
2019-06-09-14:59:14.232762,0.672,-0.321,10.055,-1.000,40.900,163.800,-0.812,2.844,0.367
2019-06-09-14:59:14.252170,0.622,-0.254,9.952,-10.200,18.600,144.000,-0.562,2.945,0.461
2019-06-09-14:59:14.271724,0.641,-0.227,10.074,-17.800,37.600,194.100,-0.852,2.945,0.195
2019-06-09-14:59:14.291262,0.641,-0.263,9.964,-14.300,38.600,193.000,-0.539,2.711,0.195
2019-06-09-14:59:14.310759,0.641,-0.306,10.031,-17.300,43.100,196.700,-0.938,3.047,0.438
2019-06-09-14:59:14.330193,0.653,-0.316,9.952,-19.500,70.100,260.500,-0.477,3.008,0.336
2019-06-09-14:59:14.349681,0.665,-0.325,10.196,1.400,52.900,190.900,-0.664,2.711,0.414
2019-06-09-14:59:14.369205,0.658,-0.378,10.028,-8.600,25.000,142.400,-0.383,3.188,0.328
2019-06-09-14:59:14.388790,0.668,-0.392,10.057,0.200,66.200,218.500,-0.359,2.992,0.242
2019-06-09-14:59:14.408234,0.636,-0.275,10.131,13.400,88.700,226.000,-0.836,2.812,0.492
2019-06-09-14:59:14.427821,0.653,-0.321,10.007,-12.300,-0.500,105.600,-0.461,2.883,0.523
2019-06-09-14:59:14.447258,0.632,-0.258,10.050,-28.600,-8.600,133.700,-0.828,2.672,0.531
2019-06-09-14:59:14.466674,0.670,-0.335,10.227,-23.600,86.900,302.600,-0.523,3.094,0.219
2019-06-09-14:59:14.486087,0.682,-0.345,10.093,-0.300,76.900,226.400,-0.617,3.070,0.305
2019-06-09-14:59:14.505498,0.644,-0.340,10.062,-13.500,13.100,134.800,-0.398,2.664,0.109
2019-06-09-14:59:14.525030,0.651,-0.342,10.086,-0.300,77.300,227.300,-1.000,3.047,0.469
2019-06-09-14:59:14.547036,0.694,-0.328,10.189,-2.200,19.800,135.400,-0.750,2.477,0.438
2019-06-09-14:59:14.566797,0.670,-0.311,9.937,5.600,38.800,158.200,-0.945,2.898,0.281
2019-06-09-14:59:14.586285,0.620,-0.313,10.047,-11.300,4.200,110.000,-0.227,2.945,0.375
2019-06-09-14:59:14.605721,0.672,-0.309,10.026,6.600,66.000,203.300,-0.953,2.727,0.258
2019-06-09-14:59:14.625209,0.636,-0.290,10.019,-18.100,14.900,163.800,-0.617,3.008,0.328
2019-06-09-14:59:14.644699,0.574,-0.292,10.059,-19.100,7.900,143.500,-0.320,2.859,0.461
2019-06-09-14:59:14.664218,0.634,-0.239,10.007,6.200,59.900,190.500,-0.461,2.750,0.375
2019-06-09-14:59:14.685666,0.653,-0.249,10.062,7.000,53.100,178.500,-0.805,2.859,0.305
2019-06-09-14:59:14.705293,0.644,-0.223,10.057,-18.600,27.600,189.900,-0.508,2.789,0.508
2019-06-09-14:59:14.724819,0.632,-0.304,10.098,-13.700,10.600,125.100,-0.656,2.836,0.172
2019-06-09-14:59:14.744332,0.737,-0.282,10.050,-18.200,43.200,208.800,-0.734,3.156,0.352
2019-06-09-14:59:14.763754,0.651,-0.306,9.995,-2.800,78.900,239.900,-0.547,2.703,0.336
2019-06-09-14:59:14.783161,0.665,-0.242,10.126,-7.400,8.300,111.100,-0.852,2.750,0.414
2019-06-09-14:59:14.802571,0.641,-0.294,10.045,-9.800,67.700,240.300,-0.688,2.820,0.625
2019-06-09-14:59:14.822033,0.636,-0.313,10.045,-19.300,8.700,145.200,-0.891,2.992,0.195
2019-06-09-14:59:14.841544,0.641,-0.285,10.122,9.400,59.200,186.200,-0.586,2.875,0.625
2019-06-09-14:59:14.861105,0.663,-0.299,9.954,0.000,84.900,241.600,-0.438,2.859,0.531
2019-06-09-14:59:14.880605,0.636,-0.306,9.966,-3.900,78.800,246.300,-0.617,3.016,0.508
2019-06-09-14:59:14.900056,0.632,-0.256,10.012,-19.300,49.100,221.900,-0.664,2.789,0.469
2019-06-09-14:59:14.919652,0.646,-0.273,9.957,-19.700,13.300,156.800,-0.766,3.070,0.281
2019-06-09-14:59:14.939169,0.672,-0.278,10.043,-21.200,-24.300,80.900,-0.328,2.578,0.398
2019-06-09-14:59:14.959090,0.660,-0.285,10.047,-24.400,14.000,162.100,-1.031,2.820,0.312
2019-06-09-14:59:14.978601,0.680,-0.323,10.059,-23.600,2.400,131.400,-0.469,2.836,0.492
2019-06-09-14:59:14.998027,0.651,-0.335,10.047,-23.700,32.000,200.900,-0.203,2.992,0.508
2019-06-09-14:59:15.017446,0.629,-0.323,10.083,2.700,20.500,124.900,-0.922,2.844,0.328
2019-06-09-14:59:15.036918,0.613,-0.321,10.026,-6.400,4.500,108.900,-0.438,2.711,0.547
2019-06-09-14:59:15.056348,0.625,-0.340,10.047,8.900,50.300,168.600,-1.078,2.453,0.328
2019-06-09-14:59:15.075868,0.608,-0.330,10.014,8.800,73.300,204.700,-0.562,2.906,0.547
2019-06-09-14:59:15.095290,0.670,-0.323,10.105,7.800,69.100,195.200,-0.188,3.133,0.445
2019-06-09-14:59:15.114710,0.703,-0.335,10.165,-37.700,9.500,189.900,-0.734,2.844,0.469
2019-06-09-14:59:15.134328,0.641,-0.337,10.052,-22.200,-1.800,125.200,-0.664,2.797,0.289
2019-06-09-14:59:15.153823,0.682,-0.297,10.069,-5.000,85.900,256.700,-0.727,2.727,0.312
2019-06-09-14:59:15.173236,0.627,-0.313,10.167,-14.100,-9.800,96.100,-0.594,2.969,0.266
2019-06-09-14:59:15.192663,0.629,-0.258,10.026,10.400,33.300,139.500,-0.297,2.844,0.391
2019-06-09-14:59:15.212066,0.644,-0.285,10.045,9.300,91.900,240.600,-0.656,2.961,0.289
2019-06-09-14:59:15.231594,0.648,-0.273,10.105,-18.500,-17.400,90.700,-1.117,2.961,0.445
2019-06-09-14:59:15.251146,0.634,-0.287,10.110,0.100,-3.500,93.100,-0.328,2.930,0.391
2019-06-09-14:59:15.270582,0.656,-0.287,10.088,-17.400,-8.000,106.700,-0.305,2.758,0.398
2019-06-09-14:59:15.289991,0.608,-0.306,9.961,-11.600,73.300,269.200,-0.609,2.812,0.398
2019-06-09-14:59:15.309509,0.656,-0.309,10.067,2.300,86.900,250.200,-0.625,3.078,0.281
2019-06-09-14:59:15.328966,0.605,-0.328,10.069,-2.400,-2.500,95.200,-0.516,2.836,0.445
2019-06-09-14:59:15.348431,0.711,-0.347,9.980,-23.900,10.200,157.000,-0.789,3.070,0.523
2019-06-09-14:59:15.367954,0.687,-0.397,10.158,-19.600,-3.900,115.600,-0.992,2.820,0.641
2019-06-09-14:59:15.387472,0.711,-0.323,10.129,-0.600,4.000,104.600,-0.562,2.773,0.422
2019-06-09-14:59:15.406929,0.694,-0.361,10.150,-22.300,3.400,143.400,-0.695,3.055,0.375
2019-06-09-14:59:15.426362,0.644,-0.328,10.122,-3.800,-2.300,97.300,-0.570,2.883,0.391
2019-06-09-14:59:15.445924,0.689,-0.342,10.162,-22.900,11.100,167.000,-0.281,3.289,0.273
2019-06-09-14:59:15.465365,0.641,-0.342,10.129,-11.800,0.300,110.800,-0.812,2.625,0.547
2019-06-09-14:59:15.484772,0.687,-0.340,10.100,6.300,67.900,203.200,-0.352,2.664,0.148
2019-06-09-14:59:15.504241,0.653,-0.373,10.129,-19.300,-18.400,99.000,-0.875,2.469,0.414
2019-06-09-14:59:15.523645,0.672,-0.330,10.177,9.600,48.000,157.200,-0.641,2.703,0.508
2019-06-09-14:59:15.543068,0.682,-0.383,10.110,-26.300,17.700,185.000,-0.297,2.758,0.547
2019-06-09-14:59:15.562549,0.696,-0.366,10.148,-23.800,-8.800,121.800,-0.617,2.883,0.422
2019-06-09-14:59:15.581962,0.651,-0.321,10.162,-29.900,2.600,153.900,-0.492,2.641,0.242
2019-06-09-14:59:15.601393,0.658,-0.345,10.102,-29.100,18.100,183.500,-0.969,2.664,0.461
2019-06-09-14:59:15.620878,0.680,-0.304,10.026,-8.800,90.800,274.100,-0.781,3.055,0.195
2019-06-09-14:59:15.640347,0.613,-0.294,10.119,10.900,90.700,229.800,-0.562,2.930,0.469
2019-06-09-14:59:15.659850,0.644,-0.285,10.141,14.300,66.400,182.300,-0.484,2.672,0.305
2019-06-09-14:59:15.679365,0.639,-0.359,10.050,8.500,108.500,264.200,-0.586,2.734,0.578
2019-06-09-14:59:15.698825,0.629,-0.282,10.186,-12.700,-20.800,74.800,-0.703,2.688,0.258
2019-06-09-14:59:15.718267,0.668,-0.368,10.117,-30.300,-7.000,129.900,-0.812,2.648,0.391
2019-06-09-14:59:15.737755,0.634,-0.287,10.038,5.700,104.700,263.300,-0.289,2.883,0.391
2019-06-09-14:59:15.759058,0.634,-0.306,10.124,-30.400,-6.700,133.700,-0.906,2.859,0.531
2019-06-09-14:59:15.778580,0.641,-0.234,10.047,6.400,105.400,263.400,-0.711,2.812,0.422
2019-06-09-14:59:15.798005,0.658,-0.333,9.980,-6.800,104.200,289.000,-0.641,3.047,0.445
2019-06-09-14:59:15.817434,0.656,-0.340,10.102,11.200,75.100,199.600,-0.500,2.992,0.445
2019-06-09-14:59:15.836960,0.684,-0.306,10.136,17.100,73.100,191.200,-0.992,2.531,0.398
2019-06-09-14:59:15.856455,0.711,-0.304,10.055,9.200,31.400,127.700,-0.352,2.617,0.234
2019-06-09-14:59:15.876198,0.663,-0.309,10.167,-28.100,39.900,224.200,-0.461,2.922,0.391
2019-06-09-14:59:15.895695,0.636,-0.290,10.174,-22.700,2.700,138.700,-0.773,2.820,0.578
2019-06-09-14:59:15.915133,0.660,-0.309,10.050,-25.800,47.900,235.100,-0.180,2.758,0.352
2019-06-09-14:59:15.934587,0.668,-0.349,10.131,-31.100,17.900,186.600,-0.617,3.047,0.328
2019-06-09-14:59:15.954167,0.680,-0.301,10.167,-11.600,-20.600,79.000,-1.133,3.102,0.469
2019-06-09-14:59:15.973731,0.663,-0.330,10.045,-2.500,96.100,272.200,-0.492,2.812,0.086
2019-06-09-14:59:15.993160,0.692,-0.318,10.095,11.500,32.000,133.000,-0.930,2.883,0.281
2019-06-09-14:59:16.012570,0.668,-0.280,10.107,-27.800,3.200,158.100,-0.602,3.133,0.484
2019-06-09-14:59:16.032041,0.656,-0.330,10.064,6.600,97.500,253.700,-0.812,2.945,0.266
2019-06-09-14:59:16.051532,0.675,-0.361,10.141,-18.100,-14.200,103.100,-0.305,3.164,0.398
2019-06-09-14:59:16.070987,0.684,-0.323,10.217,0.700,0.400,94.600,-0.266,2.984,0.492
2019-06-09-14:59:16.090411,0.670,-0.301,10.177,11.800,36.900,135.900,-0.562,2.602,0.555
2019-06-09-14:59:16.109808,0.682,-0.368,10.091,17.700,85.500,222.800,-0.922,2.750,0.547
2019-06-09-14:59:16.129261,0.677,-0.371,10.198,12.700,31.500,130.600,-0.797,3.180,0.398
2019-06-09-14:59:16.151020,0.684,-0.335,10.131,-11.900,85.100,279.400,-0.859,2.883,0.391
2019-06-09-14:59:16.172996,0.720,-0.330,10.124,-10.000,-16.100,84.100,-0.562,2.711,0.391
2019-06-09-14:59:16.192531,0.682,-0.354,10.143,6.300,9.700,101.800,-0.492,2.859,0.398
2019-06-09-14:59:16.211963,0.670,-0.311,10.189,7.700,20.000,114.100,-0.547,2.883,0.312
2019-06-09-14:59:16.231402,0.663,-0.306,10.150,-1.600,-9.800,81.700,-0.852,2.906,0.461
2019-06-09-14:59:16.250820,0.641,-0.345,10.203,13.100,32.600,131.700,-0.594,3.141,0.469
2019-06-09-14:59:16.270336,0.672,-0.311,10.098,18.700,75.300,203.000,-0.586,2.836,0.367
2019-06-09-14:59:16.289802,0.694,-0.335,10.014,-9.400,98.600,298.100,-0.445,2.961,0.234
2019-06-09-14:59:16.309204,0.625,-0.357,10.117,15.800,51.200,157.300,-0.812,2.875,0.414
2019-06-09-14:59:16.328620,0.629,-0.306,10.093,-19.000,-28.200,80.600,-0.734,2.945,0.414
2019-06-09-14:59:16.348030,0.653,-0.313,10.150,16.500,51.800,159.200,-0.727,2.859,0.578
2019-06-09-14:59:16.367718,0.641,-0.280,10.169,-7.100,-22.200,70.900,-0.750,2.930,0.438
2019-06-09-14:59:16.387265,0.646,-0.223,10.062,12.600,39.900,153.000,-0.109,2.883,0.531
2019-06-09-14:59:16.406717,0.591,-0.297,10.095,-2.800,-18.600,71.200,-0.266,2.945,0.508
2019-06-09-14:59:16.426169,0.723,-0.292,10.136,18.100,61.200,174.700,-0.367,3.047,0.148
2019-06-09-14:59:16.445580,0.675,-0.278,10.059,10.400,103.000,258.900,-0.570,2.992,0.242
2019-06-09-14:59:16.465003,0.658,-0.287,10.095,9.500,17.300,108.000,-0.375,3.203,0.406
2019-06-09-14:59:16.484483,0.665,-0.304,10.131,18.300,73.300,198.800,-0.594,3.055,0.242
2019-06-09-14:59:16.503904,0.656,-0.292,10.102,6.100,31.500,131.700,-0.336,3.070,0.492
2019-06-09-14:59:16.523328,0.680,-0.321,10.114,16.600,86.500,222.700,-0.352,2.992,0.336
2019-06-09-14:59:16.542756,0.668,-0.342,10.091,-18.400,-28.700,72.200,-0.883,2.961,0.375
2019-06-09-14:59:16.562178,0.677,-0.330,10.143,-3.500,-13.700,73.900,-0.562,2.758,0.234
2019-06-09-14:59:16.581739,0.663,-0.325,10.083,-3.200,110.200,289.900,-0.969,2.930,0.641
2019-06-09-14:59:16.601249,0.641,-0.309,10.102,5.600,15.200,105.200,-0.531,2.711,0.422
2019-06-09-14:59:16.620701,0.653,-0.321,10.091,-30.600,-9.800,126.400,-0.727,2.703,0.414
2019-06-09-14:59:16.640165,0.641,-0.349,10.186,-32.100,27.300,202.600,-0.516,2.844,0.398
2019-06-09-14:59:16.659695,0.675,-0.395,10.215,-30.600,-18.600,103.000,-0.570,2.664,0.305
2019-06-09-14:59:16.679244,0.672,-0.395,9.973,-10.300,107.100,301.200,-0.594,3.188,0.219
2019-06-09-14:59:16.698727,0.684,-0.306,10.184,-19.400,-28.800,73.200,-0.789,2.930,0.492
2019-06-09-14:59:16.718168,0.651,-0.328,10.177,3.400,-1.500,84.100,-0.469,2.797,0.391
2019-06-09-14:59:16.737672,0.644,-0.335,10.035,-24.100,68.800,269.000,-0.328,3.211,0.430
2019-06-09-14:59:16.757091,0.675,-0.306,10.215,6.200,9.300,101.400,-0.672,3.102,0.484
2019-06-09-14:59:16.776507,0.646,-0.297,10.033,-21.200,-20.700,80.000,-0.953,3.078,0.367
2019-06-09-14:59:16.796121,0.636,-0.292,10.141,1.700,10.200,98.400,-0.898,2.703,0.266
2019-06-09-14:59:16.815549,0.701,-0.287,10.043,-3.600,4.300,98.000,-0.328,3.047,0.375
2019-06-09-14:59:16.834948,0.627,-0.287,10.033,10.100,92.000,244.500,-0.375,2.961,0.422
2019-06-09-14:59:16.854410,0.658,-0.266,10.126,11.700,75.900,205.800,-0.344,2.492,0.461
2019-06-09-14:59:16.874002,0.689,-0.318,10.014,9.100,86.300,230.300,-0.336,3.117,0.148
2019-06-09-14:59:16.893607,0.639,-0.280,10.012,-9.900,99.400,297.300,-0.750,3.109,-0.047
2019-06-09-14:59:16.913059,0.593,-0.285,10.122,7.200,43.200,151.300,-0.859,2.836,0.508
2019-06-09-14:59:16.932503,0.692,-0.258,10.134,-25.200,34.900,214.700,-0.656,2.773,0.336
2019-06-09-14:59:16.954897,0.641,-0.273,10.045,-11.000,67.400,261.000,-0.820,3.094,0.469
2019-06-09-14:59:16.974456,0.692,-0.328,10.035,1.800,77.200,228.700,-0.398,2.812,0.234
2019-06-09-14:59:16.994012,0.629,-0.311,9.947,-12.100,68.600,251.900,-0.977,2.859,0.367
2019-06-09-14:59:17.013447,0.625,-0.273,10.052,-22.700,34.500,201.300,-0.414,2.930,0.336
2019-06-09-14:59:17.032860,0.629,-0.275,10.110,-6.900,7.500,115.500,-0.859,2.648,0.469
2019-06-09-14:59:17.052337,0.677,-0.266,10.067,-1.800,12.300,122.900,-0.953,2.602,0.508
2019-06-09-14:59:17.071768,0.658,-0.330,10.122,7.900,52.100,173.900,-0.539,2.992,0.367
2019-06-09-14:59:17.091311,0.601,-0.297,10.062,-11.300,64.900,254.400,-0.828,2.758,0.336
2019-06-09-14:59:17.110757,0.651,-0.299,10.143,-21.800,12.600,169.400,-0.680,2.875,0.289
2019-06-09-14:59:17.130239,0.636,-0.345,10.114,8.000,44.700,158.900,-0.680,2.773,0.445
2019-06-09-14:59:17.149679,0.660,-0.294,10.043,4.300,18.100,124.700,-0.617,2.734,0.555
2019-06-09-14:59:17.169102,0.625,-0.297,10.050,12.500,54.000,170.200,-0.484,2.586,0.367
2019-06-09-14:59:17.188530,0.644,-0.270,10.064,-1.400,85.500,257.800,-0.812,2.844,0.328
2019-06-09-14:59:17.208024,0.668,-0.328,10.201,-21.700,1.800,149.500,-0.664,2.969,0.547
2019-06-09-14:59:17.227446,0.680,-0.328,10.064,7.300,71.900,206.800,-0.547,2.773,0.391
2019-06-09-14:59:17.246851,0.663,-0.340,10.088,-22.300,21.600,190.300,-0.039,2.734,0.469
2019-06-09-14:59:17.266250,0.694,-0.268,10.181,-14.500,-11.700,109.000,-0.578,3.141,0.570
2019-06-09-14:59:17.285682,0.608,-0.290,10.055,2.800,6.800,111.200,-0.594,2.648,0.367
2019-06-09-14:59:17.305112,0.627,-0.290,10.088,10.800,65.200,189.200,-0.836,2.844,0.281
2019-06-09-14:59:17.324534,0.636,-0.292,9.980,-16.200,43.700,231.500,-0.992,2.883,0.461
2019-06-09-14:59:17.344038,0.617,-0.270,10.064,5.600,19.600,129.900,-0.516,2.898,0.438
2019-06-09-14:59:17.364115,0.670,-0.208,10.052,14.700,75.200,208.400,-0.414,2.844,0.305
2019-06-09-14:59:17.383718,0.617,-0.287,10.019,8.300,73.600,225.500,-0.812,2.797,0.445
2019-06-09-14:59:17.403240,0.636,-0.313,10.134,6.000,33.600,142.600,-0.664,2.945,0.352
2019-06-09-14:59:17.422683,0.627,-0.337,10.160,12.100,40.100,148.000,-0.750,2.984,0.469
2019-06-09-14:59:17.442126,0.670,-0.254,10.050,6.900,28.800,140.300,-0.750,2.602,0.688
2019-06-09-14:59:17.461680,0.608,-0.368,10.069,-11.000,95.800,278.300,-0.898,2.930,0.195
2019-06-09-14:59:17.481199,0.596,-0.287,10.033,-26.200,45.300,230.000,-0.305,2.789,0.422
2019-06-09-14:59:17.500677,0.663,-0.256,9.978,-5.700,101.500,283.300,-0.734,2.812,0.289
2019-06-09-14:59:17.520132,0.596,-0.287,9.964,2.400,103.000,271.300,-0.570,2.961,0.375
2019-06-09-14:59:17.539640,0.615,-0.311,10.067,-23.500,-16.000,96.000,-0.461,2.727,0.352
2019-06-09-14:59:17.559108,0.608,-0.270,9.971,-24.100,53.200,238.800,-0.273,2.727,0.289
2019-06-09-14:59:17.578530,0.613,-0.249,9.973,-12.500,91.700,275.700,-0.781,3.031,0.328
2019-06-09-14:59:17.597963,0.579,-0.318,10.050,-24.500,54.700,242.100,-0.688,2.844,0.461
2019-06-09-14:59:17.617452,0.699,-0.292,10.057,-31.300,13.600,165.100,-0.688,2.750,0.438
2019-06-09-14:59:17.636933,0.692,-0.313,10.076,5.100,107.100,274.200,-0.516,3.070,0.258
2019-06-09-14:59:17.656372,0.663,-0.340,10.138,10.000,40.900,142.100,-0.852,2.859,0.219
2019-06-09-14:59:17.677841,0.629,-0.309,10.088,-29.100,-7.800,115.400,-0.656,2.688,0.148
2019-06-09-14:59:17.697565,0.689,-0.309,10.114,-14.200,-15.500,87.300,-0.133,2.820,0.305
2019-06-09-14:59:17.717141,0.672,-0.285,10.059,-20.300,79.500,273.600,-0.594,2.789,0.328
2019-06-09-14:59:17.736565,0.641,-0.294,10.088,-28.600,37.100,216.500,-0.883,2.672,0.328
2019-06-09-14:59:17.756062,0.689,-0.340,10.004,-2.600,92.200,263.500,-0.727,2.984,0.352
2019-06-09-14:59:17.775885,0.684,-0.316,10.033,11.100,55.400,166.700,-0.609,2.844,0.375
2019-06-09-14:59:17.795396,0.641,-0.342,10.074,7.600,95.000,252.600,-0.062,2.945,0.281
2019-06-09-14:59:17.814896,0.660,-0.330,10.024,10.700,74.600,201.100,-1.078,2.648,0.367
2019-06-09-14:59:17.834349,0.625,-0.258,10.055,-10.700,-4.300,97.700,-0.500,2.727,0.258
2019-06-09-14:59:17.853773,0.572,-0.244,10.081,-26.600,-6.600,113.800,-0.633,2.602,0.234
2019-06-09-14:59:17.873349,0.677,-0.263,10.071,-12.800,-8.900,87.200,-0.609,2.922,0.266
2019-06-09-14:59:17.892866,0.660,-0.246,10.050,2.300,25.800,125.500,-0.570,2.750,0.195
2019-06-09-14:59:17.912427,0.641,-0.237,10.067,6.000,66.000,194.000,-0.352,3.117,0.508
2019-06-09-14:59:17.931923,0.639,-0.301,10.083,-1.200,94.100,265.200,-0.562,2.758,0.188
2019-06-09-14:59:17.951348,0.663,-0.292,10.064,0.500,16.800,111.600,-0.727,2.836,0.242
2019-06-09-14:59:17.971604,0.562,-0.254,10.012,1.000,79.600,255.400,-0.578,3.117,0.391
2019-06-09-14:59:17.993056,0.632,-0.313,9.897,-21.900,50.800,232.900,-0.922,2.875,0.438
2019-06-09-14:59:18.014283,0.579,-0.256,9.978,-27.000,14.300,162.200,-0.852,2.641,0.492
2019-06-09-14:59:18.034060,0.627,-0.282,10.002,-13.100,93.600,291.900,-0.484,2.945,0.531
2019-06-09-14:59:18.053562,0.620,-0.292,10.107,8.000,51.800,157.900,-0.531,2.812,0.461
2019-06-09-14:59:18.073046,0.610,-0.311,10.047,-24.400,48.400,231.700,-0.516,2.875,0.336
2019-06-09-14:59:18.092710,0.634,-0.251,10.012,11.100,135.000,315.100,-0.727,2.820,0.328
2019-06-09-14:59:18.112346,0.629,-0.256,10.098,-5.700,-30.100,47.000,-0.391,2.648,0.438
2019-06-09-14:59:18.131922,0.636,-0.242,10.095,-33.800,-5.400,123.800,-0.641,3.094,0.445
2019-06-09-14:59:18.154547,0.658,-0.301,10.052,-27.500,11.000,147.100,-0.594,2.992,0.336
2019-06-09-14:59:18.174332,0.660,-0.270,10.093,11.500,87.700,222.000,-0.805,2.859,0.289
2019-06-09-14:59:18.193805,0.636,-0.321,10.052,0.500,101.500,270.800,-0.352,2.812,0.398
2019-06-09-14:59:18.213290,0.665,-0.318,10.086,13.400,69.200,184.300,-0.633,2.844,0.648
2019-06-09-14:59:18.232728,0.636,-0.294,10.057,-10.900,96.100,280.100,-0.445,2.898,0.555
2019-06-09-14:59:18.252083,0.696,-0.311,10.148,-10.600,-15.000,82.500,-0.203,3.156,0.312
2019-06-09-14:59:18.271722,0.644,-0.345,10.076,-0.500,102.900,271.100,-0.508,2.922,0.375
2019-06-09-14:59:18.291204,0.663,-0.299,10.088,10.400,73.400,201.700,-0.711,3.008,0.484
2019-06-09-14:59:18.310607,0.675,-0.316,10.143,-14.600,-24.300,84.700,-0.328,3.094,0.375
2019-06-09-14:59:18.330068,0.613,-0.335,9.988,-24.100,38.600,226.000,-0.492,2.844,0.289
2019-06-09-14:59:18.349553,0.692,-0.342,10.122,-26.300,-2.100,145.400,-0.414,2.820,0.234
2019-06-09-14:59:18.369063,0.598,-0.282,10.201,-20.700,-21.200,94.600,-1.070,2.562,0.625
2019-06-09-14:59:18.388567,0.665,-0.345,10.083,-27.800,0.700,151.300,-0.266,2.555,0.109
2019-06-09-14:59:18.407977,0.687,-0.328,10.146,7.900,5.600,103.900,-0.781,2.992,0.266
2019-06-09-14:59:18.427477,0.577,-0.352,10.158,-26.900,16.500,186.600,-0.688,2.734,0.438
2019-06-09-14:59:18.446900,0.660,-0.323,10.040,-17.200,66.000,262.900,-0.445,2.922,0.352
2019-06-09-14:59:18.466283,0.663,-0.318,10.122,-25.600,28.500,212.200,-0.547,2.859,0.375
2019-06-09-14:59:18.485687,0.668,-0.316,10.186,-25.900,-3.500,136.100,-0.430,3.055,0.375
2019-06-09-14:59:18.505057,0.663,-0.347,10.067,-27.200,9.700,167.100,-0.547,2.930,0.469
2019-06-09-14:59:18.524475,0.622,-0.364,10.179,7.600,14.300,118.500,-0.711,3.016,0.398
2019-06-09-14:59:18.543875,0.696,-0.254,10.162,11.800,61.400,196.100,-0.828,2.789,0.336
2019-06-09-14:59:18.563911,0.651,-0.285,10.126,11.700,51.200,172.500,-0.664,2.773,0.391
2019-06-09-14:59:18.583408,0.653,-0.261,10.076,11.400,49.600,171.900,-0.992,2.844,0.242
2019-06-09-14:59:18.602804,0.615,-0.266,10.081,4.900,18.900,125.500,-0.688,3.117,0.492
2019-06-09-14:59:18.622389,0.601,-0.266,9.990,17.300,61.300,187.100,-0.906,2.797,0.461
2019-06-09-14:59:18.641860,0.593,-0.261,10.007,-12.400,62.400,253.800,-0.469,2.797,0.289
2019-06-09-14:59:18.661365,0.627,-0.282,9.990,-18.800,41.900,228.200,-0.672,3.117,0.469
2019-06-09-14:59:18.680774,0.636,-0.206,10.021,-21.300,11.600,174.900,-0.547,2.773,0.469
2019-06-09-14:59:18.700180,0.675,-0.311,10.064,-14.900,-9.800,114.000,-0.828,2.758,0.547
2019-06-09-14:59:18.719675,0.613,-0.330,10.102,-4.400,-13.200,89.900,-0.516,3.008,0.367
2019-06-09-14:59:18.739195,0.610,-0.258,9.992,-9.000,85.900,266.000,-0.664,2.906,0.492
2019-06-09-14:59:18.758617,0.675,-0.280,10.035,5.400,77.200,210.700,-0.586,2.859,0.211
2019-06-09-14:59:18.778004,0.627,-0.294,10.074,-1.600,92.300,253.800,-0.391,2.969,0.133
2019-06-09-14:59:18.797431,0.625,-0.349,10.064,-14.200,81.200,267.000,-0.594,2.992,0.484
2019-06-09-14:59:18.816847,0.644,-0.297,9.995,-25.000,51.100,240.300,-0.445,2.578,0.156
2019-06-09-14:59:18.836344,0.648,-0.321,9.964,-2.300,97.900,261.800,-0.664,3.008,0.422
2019-06-09-14:59:18.855824,0.613,-0.304,10.155,0.900,19.500,116.000,-0.461,2.703,0.398
2019-06-09-14:59:18.875372,0.672,-0.340,10.148,4.300,32.800,131.800,-0.617,2.820,0.039
2019-06-09-14:59:18.894847,0.703,-0.335,10.038,-26.800,11.000,157.500,-0.633,2.859,0.266
2019-06-09-14:59:18.914344,0.660,-0.333,10.153,-17.900,-7.900,106.100,-0.508,2.797,0.102
2019-06-09-14:59:18.933828,0.608,-0.352,10.148,-31.300,10.700,158.900,-0.688,3.328,0.539
2019-06-09-14:59:18.953274,0.684,-0.323,10.055,2.700,98.800,256.700,-0.641,2.930,0.367
2019-06-09-14:59:18.972647,0.675,-0.316,10.086,-22.800,-4.200,116.200,-0.625,3.070,0.375
2019-06-09-14:59:18.992013,0.577,-0.292,10.093,-28.100,11.800,157.700,-0.516,3.008,0.258
2019-06-09-14:59:19.011488,0.665,-0.318,10.074,6.600,49.600,154.800,-0.812,2.641,0.508
2019-06-09-14:59:19.030853,0.617,-0.292,10.076,-8.900,0.800,100.700,-0.594,2.906,0.391
2019-06-09-14:59:19.050274,0.632,-0.273,10.035,0.900,93.000,248.000,-0.773,2.836,0.219
2019-06-09-14:59:19.069644,0.675,-0.325,10.031,-4.600,94.000,263.400,-0.492,2.984,0.375
2019-06-09-14:59:19.089010,0.648,-0.304,10.059,-21.200,-11.600,124.600,-0.312,3.164,0.125
2019-06-09-14:59:19.108376,0.617,-0.258,10.074,-7.000,78.000,271.700,-0.883,2.688,0.172
2019-06-09-14:59:19.127864,0.651,-0.301,10.014,-13.500,-12.600,106.800,-0.922,2.969,0.242
2019-06-09-14:59:19.147347,0.629,-0.309,10.102,-0.200,-3.100,101.300,-0.688,2.812,0.414
2019-06-09-14:59:19.168740,0.620,-0.290,10.057,12.500,41.200,150.000,-0.641,3.055,0.352
2019-06-09-14:59:19.188231,0.653,-0.292,10.071,-12.400,-17.500,98.800,-0.984,3.078,0.375
2019-06-09-14:59:19.207716,0.699,-0.328,10.014,-23.400,24.000,202.500,-0.930,2.836,0.336
2019-06-09-14:59:19.227111,0.613,-0.244,10.035,2.800,88.400,256.500,-0.492,2.812,0.445
2019-06-09-14:59:19.246545,0.636,-0.297,10.024,-6.600,80.900,270.400,-0.445,2.922,0.531
2019-06-09-14:59:19.266011,0.644,-0.230,9.918,-20.000,49.500,244.600,-0.422,2.734,0.258
2019-06-09-14:59:19.285412,0.644,-0.275,10.114,5.200,2.100,103.800,-0.555,3.133,0.422
2019-06-09-14:59:19.304796,0.644,-0.275,10.069,15.400,51.400,164.100,-0.977,2.539,0.461
2019-06-09-14:59:19.324263,0.634,-0.282,9.968,12.400,90.000,244.100,-0.641,2.664,0.242
2019-06-09-14:59:19.343707,0.603,-0.311,10.122,13.100,47.900,163.200,-0.727,2.969,0.234
2019-06-09-14:59:19.363782,0.680,-0.278,10.000,13.500,82.600,227.400,-0.469,2.859,0.438
2019-06-09-14:59:19.383325,0.653,-0.313,9.992,3.200,92.800,274.900,-0.570,2.703,0.523
2019-06-09-14:59:19.402746,0.670,-0.335,10.213,-14.000,-22.800,80.500,-0.727,2.789,0.617
2019-06-09-14:59:19.422147,0.663,-0.330,10.124,2.000,2.100,102.900,-0.461,2.648,0.375
2019-06-09-14:59:19.441648,0.641,-0.313,10.119,6.900,10.600,105.800,-0.875,2.789,0.305
2019-06-09-14:59:19.461186,0.660,-0.321,10.047,-20.000,18.100,182.600,-1.086,3.016,0.375
2019-06-09-14:59:19.480589,0.646,-0.313,10.067,-7.900,-2.400,108.100,-0.180,3.031,0.125
2019-06-09-14:59:19.499969,0.639,-0.345,10.055,-24.000,14.500,165.800,-0.344,2.930,0.148
2019-06-09-14:59:19.519574,0.639,-0.349,10.117,-24.800,0.200,144.200,-0.836,2.812,0.445
2019-06-09-14:59:19.538991,0.641,-0.316,10.028,5.400,93.100,271.000,-0.711,3.016,0.266
2019-06-09-14:59:19.558476,0.651,-0.297,10.016,-6.500,95.900,278.800,-0.656,2.945,0.188
2019-06-09-14:59:19.577887,0.629,-0.268,10.062,4.700,86.600,235.200,-0.422,2.703,0.133
2019-06-09-14:59:19.597274,0.639,-0.256,9.985,6.500,69.600,197.700,-0.977,2.836,0.438
2019-06-09-14:59:19.616660,0.620,-0.275,9.906,-8.200,85.300,268.800,-0.781,2.883,0.469
2019-06-09-14:59:19.636109,0.677,-0.239,9.990,-6.200,90.100,273.800,-0.633,2.961,0.414
2019-06-09-14:59:19.655571,0.625,-0.278,9.959,1.100,92.200,259.900,-0.977,3.164,0.156
2019-06-09-14:59:19.675020,0.653,-0.282,9.988,-15.000,73.800,264.100,-0.945,2.922,0.289
2019-06-09-14:59:19.694434,0.620,-0.306,9.988,-2.200,86.200,249.100,-0.688,2.875,0.438
2019-06-09-14:59:19.713885,0.660,-0.268,10.031,3.400,80.000,223.900,-0.289,2.789,0.570
2019-06-09-14:59:19.733266,0.651,-0.333,10.033,-24.200,7.300,144.000,-0.547,3.008,0.188
2019-06-09-14:59:19.752682,0.692,-0.275,10.107,-1.800,21.600,120.300,-0.562,2.812,0.305
2019-06-09-14:59:19.772601,0.665,-0.373,10.012,-28.500,4.600,155.800,-1.000,2.945,0.289
2019-06-09-14:59:19.792117,0.663,-0.359,9.978,-6.600,92.900,262.000,-0.508,2.836,0.492
2019-06-09-14:59:19.811589,0.689,-0.337,10.165,7.200,80.400,213.800,-0.711,2.883,0.711
2019-06-09-14:59:19.830976,0.713,-0.306,10.091,7.600,95.000,242.900,-0.703,2.773,0.148
2019-06-09-14:59:19.850356,0.646,-0.371,10.210,0.900,-10.600,59.300,-0.539,3.078,0.523
2019-06-09-14:59:19.869860,0.622,-0.337,10.040,-25.200,47.800,233.300,-0.484,2.859,0.336
2019-06-09-14:59:19.889426,0.660,-0.287,10.059,-19.400,81.100,272.800,-0.531,2.984,0.391
2019-06-09-14:59:19.908850,0.653,-0.352,10.100,-18.100,97.300,295.700,-0.570,2.750,0.289
2019-06-09-14:59:19.928266,0.632,-0.290,10.038,-13.500,94.900,286.000,-0.492,3.156,0.414
2019-06-09-14:59:19.947740,0.634,-0.333,10.136,-15.500,73.000,274.900,-0.172,2.742,-0.078
2019-06-09-14:59:19.967164,0.696,-0.359,10.234,6.900,5.400,103.900,-0.516,2.930,0.352
2019-06-09-14:59:19.986572,0.651,-0.292,9.971,-11.000,82.900,281.400,-0.812,2.961,0.484
2019-06-09-14:59:20.006051,0.682,-0.330,10.158,-8.200,-23.700,82.200,-0.594,3.016,0.641
2019-06-09-14:59:20.025491,0.656,-0.323,10.172,-19.100,-19.000,106.600,-0.641,2.859,0.305
2019-06-09-14:59:20.044923,0.625,-0.304,10.019,-28.800,11.200,176.000,-0.422,2.812,0.484
2019-06-09-14:59:20.064423,0.648,-0.347,10.129,-26.800,-19.400,102.400,-0.836,2.984,0.391
2019-06-09-14:59:20.083865,0.665,-0.306,10.129,-10.800,-26.000,76.900,-0.570,2.961,0.391
2019-06-09-14:59:20.103247,0.644,-0.292,10.057,-25.500,54.300,260.700,-0.773,2.844,0.211
2019-06-09-14:59:20.122675,0.620,-0.345,10.031,-28.900,24.600,212.800,-0.508,3.125,-0.023
2019-06-09-14:59:20.142097,0.653,-0.309,10.067,15.800,31.300,122.300,-0.781,2.812,0.414
2019-06-09-14:59:20.161637,0.653,-0.316,10.093,-1.500,-19.500,68.500,-0.852,2.820,0.492
2019-06-09-14:59:20.181189,0.634,-0.352,10.117,-25.000,-21.200,100.400,-0.812,2.734,0.312
2019-06-09-14:59:20.200623,0.677,-0.347,10.076,-13.600,88.300,302.000,-1.172,2.773,0.281
2019-06-09-14:59:20.220018,0.629,-0.340,10.014,4.300,39.700,160.700,-0.562,2.922,0.461
2019-06-09-14:59:20.239488,0.648,-0.287,10.158,-18.300,-42.500,55.800,-0.125,2.883,0.375
2019-06-09-14:59:20.258876,0.634,-0.354,10.088,-29.100,-22.000,111.900,-0.602,3.070,0.492
2019-06-09-14:59:20.278313,0.636,-0.359,10.088,20.200,80.900,200.800,-0.414,2.883,0.469
2019-06-09-14:59:20.297790,0.644,-0.359,10.091,-15.100,-39.600,56.400,-0.508,2.844,0.172
2019-06-09-14:59:20.317222,0.689,-0.323,10.079,-2.300,119.600,309.900,-0.789,2.820,0.312
2019-06-09-14:59:20.336607,0.660,-0.321,10.126,21.900,90.300,199.000,-0.680,2.922,0.234
2019-06-09-14:59:20.356081,0.646,-0.354,10.160,-22.500,-35.400,54.900,-0.734,2.984,0.062
2019-06-09-14:59:20.375667,0.692,-0.306,10.150,-24.200,-37.300,57.000,-0.414,2.812,0.523
2019-06-09-14:59:20.395147,0.711,-0.376,10.138,-37.600,25.500,205.000,-0.516,2.969,0.398
2019-06-09-14:59:20.414539,0.670,-0.349,10.026,-15.600,105.300,315.100,-0.547,2.930,0.398
2019-06-09-14:59:20.434129,0.672,-0.297,10.071,-24.800,86.700,298.900,-0.375,3.156,0.414
2019-06-09-14:59:20.453531,0.639,-0.361,10.186,-29.200,-36.200,64.800,-0.656,2.844,0.594
2019-06-09-14:59:20.473005,0.627,-0.347,10.102,-12.700,110.600,313.700,-0.672,3.094,0.469
2019-06-09-14:59:20.492417,0.644,-0.335,10.114,-18.000,101.200,310.600,-1.078,2.500,0.312
2019-06-09-14:59:20.511789,0.668,-0.328,10.136,1.900,-15.200,58.500,-0.375,3.102,0.438
2019-06-09-14:59:20.531270,0.632,-0.299,10.141,20.500,88.100,198.900,-0.828,2.969,0.414
2019-06-09-14:59:20.550685,0.632,-0.323,9.959,2.800,-14.900,60.700,-0.930,2.648,0.375
2019-06-09-14:59:20.570533,0.682,-0.290,10.079,-34.600,-24.600,91.800,-0.922,2.883,0.461
2019-06-09-14:59:20.590026,0.680,-0.373,10.067,-22.800,-35.700,59.000,-0.227,2.820,0.703
2019-06-09-14:59:20.609492,0.646,-0.287,10.067,6.500,1.300,79.100,-0.305,2.922,0.641
2019-06-09-14:59:20.628943,0.677,-0.321,10.098,-25.100,76.400,288.300,-0.688,2.586,0.547
2019-06-09-14:59:20.648365,0.646,-0.306,10.141,8.900,120.500,292.800,-0.688,2.922,0.391
2019-06-09-14:59:20.669987,0.658,-0.323,10.150,4.000,121.400,305.700,-0.250,2.906,0.461
2019-06-09-14:59:20.689600,0.692,-0.280,10.086,-6.600,109.700,310.900,-0.617,3.047,0.391
2019-06-09-14:59:20.709102,0.656,-0.364,10.124,8.600,102.200,255.700,-0.461,2.812,0.445
2019-06-09-14:59:20.728531,0.668,-0.285,10.007,10.000,27.700,115.000,-0.562,2.430,0.375
2019-06-09-14:59:20.747921,0.632,-0.268,10.067,-16.500,-29.700,58.200,-0.297,2.945,0.414
2019-06-09-14:59:20.767309,0.665,-0.349,10.162,15.000,70.100,178.600,-0.758,3.141,0.336
2019-06-09-14:59:20.786766,0.692,-0.428,10.114,16.100,95.100,230.100,-0.875,2.922,0.281
2019-06-09-14:59:20.806151,0.670,-0.337,10.057,-27.700,-12.700,114.700,-0.859,2.984,0.484
2019-06-09-14:59:20.825590,0.730,-0.309,10.138,-22.500,-21.200,96.900,-0.852,2.711,0.336
2019-06-09-14:59:20.844983,0.660,-0.330,10.122,16.100,58.500,172.000,-0.750,2.875,0.172
2019-06-09-14:59:20.864488,0.675,-0.349,10.198,3.400,-3.300,79.500,-0.781,2.906,0.281
2019-06-09-14:59:20.884125,0.653,-0.318,10.122,8.700,12.400,96.900,-0.445,2.859,0.414
2019-06-09-14:59:20.903576,0.660,-0.414,10.117,-18.600,58.900,260.300,-0.922,2.758,0.328
2019-06-09-14:59:20.922987,0.641,-0.364,10.160,-30.600,19.800,183.900,-0.539,2.734,0.414
2019-06-09-14:59:20.942460,0.682,-0.328,10.167,-3.900,-15.900,75.600,-0.516,3.102,0.570
2019-06-09-14:59:20.962508,0.660,-0.345,10.057,-14.300,-25.300,77.500,-0.789,2.844,0.367
2019-06-09-14:59:20.982172,0.692,-0.345,10.165,-16.800,76.000,286.300,-0.875,2.969,0.312
2019-06-09-14:59:21.001710,0.687,-0.352,10.174,13.600,23.700,115.600,-0.688,2.727,0.398
2019-06-09-14:59:21.021192,0.694,-0.313,10.148,15.400,43.800,143.700,-0.609,2.820,0.469
2019-06-09-14:59:21.040598,0.656,-0.359,10.136,-23.200,52.600,250.600,-0.461,2.773,0.438
2019-06-09-14:59:21.059985,0.658,-0.234,10.009,17.600,77.500,206.900,-0.883,2.844,0.391
2019-06-09-14:59:21.079465,0.639,-0.244,9.971,-30.100,16.100,179.500,-0.391,3.094,0.266
2019-06-09-14:59:21.098920,0.632,-0.270,10.076,16.100,79.000,210.300,-0.594,2.734,0.352
2019-06-09-14:59:21.118319,0.639,-0.287,10.074,11.200,97.900,254.700,-0.242,2.648,0.266
2019-06-09-14:59:21.137832,0.584,-0.335,9.971,11.700,19.400,105.300,-0.484,2.820,0.422
2019-06-09-14:59:21.157261,0.636,-0.266,10.064,-8.900,21.400,156.600,-0.500,3.008,0.438
2019-06-09-14:59:21.176653,0.613,-0.318,9.978,-17.400,-17.200,101.700,-0.484,2.906,0.258
2019-06-09-14:59:21.196111,0.684,-0.328,10.076,-22.900,69.500,284.800,-0.711,2.922,0.648
2019-06-09-14:59:21.215520,0.656,-0.309,10.141,6.400,29.200,115.200,-0.375,2.648,0.188
2019-06-09-14:59:21.234910,0.701,-0.323,10.014,10.000,59.600,163.700,-0.852,2.812,0.266
2019-06-09-14:59:21.254376,0.701,-0.318,10.098,12.000,66.200,177.900,-0.422,3.141,0.492
2019-06-09-14:59:21.273767,0.672,-0.292,10.110,11.600,73.600,193.700,-0.930,2.789,0.305
2019-06-09-14:59:21.293217,0.641,-0.325,10.043,-19.500,67.600,258.200,-0.617,3.008,0.422
2019-06-09-14:59:21.312649,0.689,-0.313,10.086,-15.200,82.000,276.600,-0.328,2.945,0.492
2019-06-09-14:59:21.332116,0.656,-0.321,10.138,-1.200,0.000,92.000,-0.547,2.883,0.414
2019-06-09-14:59:21.351624,0.672,-0.328,10.095,6.600,95.400,251.700,-0.320,2.477,0.211
2019-06-09-14:59:21.371205,0.622,-0.335,10.057,0.300,99.100,268.000,-0.539,3.094,0.523
2019-06-09-14:59:21.390710,0.632,-0.290,10.114,-5.100,95.800,281.400,-0.922,2.789,0.398
2019-06-09-14:59:21.410235,0.644,-0.337,10.038,-23.500,55.700,238.900,-0.438,2.812,0.312
2019-06-09-14:59:21.429655,0.634,-0.357,10.093,-20.500,68.200,263.000,-0.789,2.922,0.469
2019-06-09-14:59:21.449052,0.639,-0.280,10.031,-31.300,21.200,173.700,-0.391,2.875,0.258
2019-06-09-14:59:21.468461,0.615,-0.287,10.019,-30.700,7.700,143.000,-0.438,2.875,0.375
2019-06-09-14:59:21.487924,0.627,-0.278,10.028,0.600,10.100,103.600,-0.656,2.906,0.391
2019-06-09-14:59:21.507365,0.634,-0.309,10.016,-40.600,-31.100,89.500,-0.680,2.625,0.508
2019-06-09-14:59:21.526756,0.641,-0.294,10.076,0.600,102.100,275.700,-0.773,2.758,0.547
2019-06-09-14:59:21.546174,0.660,-0.316,10.016,1.700,29.700,130.000,-0.781,2.789,0.438
2019-06-09-14:59:21.565582,0.660,-0.323,10.062,7.700,86.500,250.200,-0.844,3.070,0.445
2019-06-09-14:59:21.584960,0.625,-0.301,10.117,2.100,90.600,269.800,-1.023,2.992,0.336
2019-06-09-14:59:21.604397,0.689,-0.330,10.057,-24.400,31.400,198.100,-0.625,3.141,0.438
2019-06-09-14:59:21.623828,0.636,-0.273,9.976,6.200,29.000,129.700,-0.531,2.711,0.195
2019-06-09-14:59:21.643246,0.672,-0.232,10.064,7.400,38.800,143.900,-0.391,2.789,0.508
2019-06-09-14:59:21.662640,0.617,-0.321,10.026,-21.900,41.000,213.700,-0.789,3.070,0.305
2019-06-09-14:59:21.682019,0.644,-0.316,10.019,-23.100,32.400,195.200,-0.836,3.117,0.438
2019-06-09-14:59:21.701579,0.646,-0.304,10.009,-24.600,24.000,172.200,-0.883,3.133,0.461
2019-06-09-14:59:21.721176,0.632,-0.316,10.045,-2.600,79.400,264.300,-1.102,2.688,0.148
2019-06-09-14:59:21.740582,0.660,-0.270,10.012,-23.300,35.000,197.200,-0.781,2.883,0.508
2019-06-09-14:59:21.760265,0.668,-0.306,10.076,-24.000,27.100,180.800,-0.812,2.672,0.172
2019-06-09-14:59:21.780114,0.684,-0.227,10.043,-20.900,20.700,161.200,-0.633,2.875,0.375
2019-06-09-14:59:21.799679,0.660,-0.345,10.031,-9.700,65.500,250.100,-0.297,2.672,0.484
2019-06-09-14:59:21.819149,0.644,-0.368,9.961,3.800,74.000,231.900,-0.852,2.797,0.375
2019-06-09-14:59:21.838552,0.696,-0.368,10.126,1.800,33.700,150.900,-0.930,3.094,0.375
2019-06-09-14:59:21.858169,0.680,-0.366,10.079,-10.100,20.500,145.200,-0.938,3.242,0.469
2019-06-09-14:59:21.877867,0.706,-0.347,10.114,3.800,62.700,206.100,-0.461,2.945,0.414
2019-06-09-14:59:21.897337,0.680,-0.328,10.071,-11.200,52.500,205.600,-0.836,3.016,0.422
2019-06-09-14:59:21.916842,0.682,-0.297,10.040,5.100,45.100,157.400,-0.273,2.898,0.375
2019-06-09-14:59:21.936311,0.668,-0.321,10.045,-23.800,-44.100,50.100,-0.484,2.688,0.195
2019-06-09-14:59:21.955807,0.653,-0.299,10.019,-6.300,13.700,134.100,-0.266,2.688,0.484
2019-06-09-14:59:21.975241,0.715,-0.290,10.095,-13.300,-6.500,111.500,-0.688,2.945,0.328
2019-06-09-14:59:21.994626,0.653,-0.273,10.064,2.600,62.500,198.300,-0.844,3.055,0.109
2019-06-09-14:59:22.014099,0.636,-0.299,10.055,-2.700,28.500,145.200,-0.562,2.859,0.266
2019-06-09-14:59:22.033575,0.629,-0.256,10.038,-1.000,37.300,156.100,-1.242,2.898,0.336
2019-06-09-14:59:22.052974,0.625,-0.287,10.045,1.600,51.400,172.200,-0.594,2.820,0.461
2019-06-09-14:59:22.072436,0.627,-0.280,10.110,-0.600,55.700,186.500,-0.711,2.875,0.578
2019-06-09-14:59:22.091833,0.677,-0.301,9.980,0.600,59.400,194.500,-1.148,3.008,0.211
2019-06-09-14:59:22.111287,0.646,-0.309,10.033,0.400,60.600,199.000,-0.727,2.789,0.398
2019-06-09-14:59:22.130790,0.610,-0.263,10.064,-6.100,22.200,135.200,-0.781,2.711,0.508
2019-06-09-14:59:22.152303,0.658,-0.337,10.057,-1.400,63.100,214.100,-0.305,2.859,0.352
2019-06-09-14:59:22.172348,0.644,-0.280,10.024,-3.700,63.100,217.900,-0.609,2.961,0.547
2019-06-09-14:59:22.191846,0.687,-0.263,10.153,-1.400,32.000,148.100,-0.750,2.812,0.234
2019-06-09-14:59:22.211356,0.670,-0.304,10.055,-2.700,68.600,222.800,-0.570,2.789,0.234
2019-06-09-14:59:22.230816,0.632,-0.263,10.002,-1.000,35.500,153.100,-0.633,2.672,0.125
2019-06-09-14:59:22.250287,0.603,-0.263,10.052,-1.700,35.700,153.300,-0.758,2.711,0.266
2019-06-09-14:59:22.269724,0.603,-0.246,9.966,-14.400,21.500,167.800,-0.836,2.836,0.602
2019-06-09-14:59:22.289140,0.648,-0.263,10.024,-12.400,60.700,219.600,-0.492,2.945,0.266
2019-06-09-14:59:22.308545,0.660,-0.282,10.012,-16.100,29.500,172.300,-0.367,2.859,0.398
2019-06-09-14:59:22.328008,0.680,-0.333,10.047,-22.400,28.200,192.400,-1.148,2.664,0.352
2019-06-09-14:59:22.347426,0.639,-0.318,10.079,-2.500,31.700,147.600,-0.680,2.586,0.398
2019-06-09-14:59:22.366908,0.677,-0.380,10.184,-13.800,20.000,162.600,-0.734,2.820,0.336
2019-06-09-14:59:22.386405,0.658,-0.318,10.114,-5.000,28.300,140.800,-0.328,2.922,0.469
2019-06-09-14:59:22.405921,0.636,-0.275,10.129,1.200,42.500,162.000,-0.789,3.016,0.312
2019-06-09-14:59:22.425336,0.639,-0.337,10.074,-0.100,44.500,171.200,-0.844,3.016,0.305
2019-06-09-14:59:22.444816,0.634,-0.297,10.193,-30.300,-14.800,122.700,-0.195,2.844,0.484
2019-06-09-14:59:22.464312,0.703,-0.330,10.110,-2.700,30.200,145.900,-0.867,3.016,0.398
