Time,Acceleration X (m/s^2),Acceleration Y (m/s^2),Acceleration Z (m/s^2),Magnetometer X (uTesla), Magnetometer Y (uTesla)  , Magnetometer Z (uTesla),Gyroscope X (radians/s), Gyroscope Y (radians/s), Gyroscope Z (radians/s)
2019-05-26-01:43:22.272841,0.292,-0.139,10.119,-6.900,-15.200,-7.100,-0.938,2.781,-0.008
2019-05-26-01:43:22.378592,0.290,-0.151,10.134,-7.900,-14.400,-7.600,-0.945,2.883,-0.281
2019-05-26-01:43:22.484260,0.275,-0.136,10.134,-6.400,-15.000,-6.200,-1.141,2.680,-0.031
2019-05-26-01:43:22.593640,0.280,-0.146,10.136,-7.200,-15.000,-5.400,-1.305,2.758,-0.117
2019-05-26-01:43:22.703340,0.285,-0.144,10.126,-7.900,-14.700,-7.000,-1.312,2.680,-0.211
2019-05-26-01:43:22.813172,0.290,-0.153,10.141,-7.800,-15.200,-6.700,-1.047,2.719,-0.273
2019-05-26-01:43:22.923058,0.287,-0.144,10.114,-7.300,-14.600,-6.400,-1.023,2.594,-0.031
2019-05-26-01:43:23.032906,0.290,-0.148,10.124,-7.100,-14.400,-6.800,-0.797,2.672,-0.164
2019-05-26-01:43:23.142518,0.285,-0.151,10.124,-7.400,-14.200,-5.800,-0.797,2.586,-0.055
2019-05-26-01:43:23.252184,0.299,-0.139,10.134,-7.700,-14.500,-7.400,-0.961,2.648,-0.117
2019-05-26-01:43:23.361706,0.287,-0.153,10.131,-7.500,-14.300,-7.500,-1.258,2.508,0.008
2019-05-26-01:43:23.471316,0.292,-0.132,10.119,-7.600,-13.600,-7.100,-1.070,2.594,-0.117
2019-05-26-01:43:23.581073,0.282,-0.153,10.131,-6.900,-13.500,-8.100,-0.797,2.953,-0.281
2019-05-26-01:43:23.690669,0.282,-0.132,10.134,-6.700,-14.200,-7.200,-0.703,2.711,-0.094
2019-05-26-01:43:23.800595,0.280,-0.165,10.126,-7.100,-12.900,-5.100,-1.227,2.453,-0.125
2019-05-26-01:43:23.910330,0.285,-0.156,10.141,-6.600,-14.500,-6.600,-0.984,2.633,-0.250
2019-05-26-01:43:24.020233,0.297,-0.146,10.131,-7.600,-14.400,-6.200,-0.586,2.711,-0.320
2019-05-26-01:43:24.130333,0.290,-0.148,10.129,-8.500,-15.200,-6.100,-1.250,2.562,-0.148
2019-05-26-01:43:24.239968,0.278,-0.156,10.122,-7.100,-14.800,-6.500,-1.312,2.844,-0.320
2019-05-26-01:43:24.349603,0.306,-0.148,10.107,-6.600,-14.100,-5.300,-1.180,2.562,-0.055
2019-05-26-01:43:24.459267,0.285,-0.156,10.124,-7.400,-14.500,-6.800,-1.047,2.516,0.133
2019-05-26-01:43:24.569069,0.275,-0.153,10.117,-7.500,-14.600,-6.000,-1.070,2.797,-0.148
2019-05-26-01:43:24.678742,0.280,-0.139,10.114,-8.100,-14.900,-5.600,-1.070,2.828,0.234
2019-05-26-01:43:24.788375,0.287,-0.163,10.124,-6.700,-14.300,-7.200,-1.008,2.906,-0.180
2019-05-26-01:43:24.897923,0.282,-0.146,10.131,-6.500,-14.000,-7.300,-1.359,2.539,-0.125
2019-05-26-01:43:25.007950,0.280,-0.151,10.129,-7.600,-14.200,-6.400,-0.805,2.758,-0.203
2019-05-26-01:43:25.117560,0.301,-0.141,10.124,-6.600,-14.600,-6.300,-0.992,2.781,-0.141
2019-05-26-01:43:25.227116,0.290,-0.144,10.136,-6.900,-13.900,-8.000,-0.875,2.523,-0.227
2019-05-26-01:43:25.337060,0.287,-0.139,10.112,-6.800,-14.700,-7.500,-1.250,2.758,-0.055
2019-05-26-01:43:25.446778,0.297,-0.146,10.131,-7.000,-14.600,-7.000,-0.742,2.828,-0.273
2019-05-26-01:43:25.556691,0.294,-0.129,10.122,-6.100,-14.700,-6.900,-1.359,2.844,-0.438
2019-05-26-01:43:25.666280,0.297,-0.156,10.119,-7.600,-14.000,-6.300,-1.312,2.883,0.039
2019-05-26-01:43:25.776001,0.275,-0.146,10.134,-7.300,-13.600,-6.300,-1.141,2.562,-0.070
2019-05-26-01:43:25.885739,0.297,-0.144,10.112,-7.000,-14.800,-6.900,-1.359,2.820,-0.250
2019-05-26-01:43:25.995561,0.292,-0.148,10.129,-6.700,-13.900,-6.100,-0.898,2.680,-0.047
2019-05-26-01:43:26.105184,0.292,-0.158,10.112,-6.200,-14.900,-6.500,-1.312,2.625,-0.148
2019-05-26-01:43:26.215137,0.282,-0.148,10.150,-8.000,-14.800,-7.000,-1.047,2.820,-0.203
2019-05-26-01:43:26.324747,0.306,-0.153,10.114,-6.900,-14.000,-7.400,-1.016,2.797,-0.305
2019-05-26-01:43:26.434378,0.297,-0.153,10.122,-8.000,-14.200,-8.200,-1.258,2.820,-0.188
2019-05-26-01:43:26.544352,0.285,-0.151,10.122,-7.400,-14.400,-6.500,-1.188,2.562,-0.094
2019-05-26-01:43:26.654128,0.294,-0.144,10.143,-7.700,-14.700,-7.300,-1.211,2.523,-0.148
2019-05-26-01:43:26.763815,0.292,-0.144,10.105,-6.900,-14.500,-7.700,-0.875,2.680,-0.125
2019-05-26-01:43:26.873389,0.280,-0.141,10.112,-7.100,-14.800,-6.500,-0.938,2.820,-0.234
2019-05-26-01:43:26.983081,0.282,-0.139,10.136,-7.600,-13.300,-7.800,-1.070,2.625,-0.367
2019-05-26-01:43:27.094667,0.285,-0.158,10.119,-8.400,-14.400,-7.500,-0.750,2.805,-0.148
2019-05-26-01:43:27.204280,0.287,-0.151,10.122,-6.700,-14.000,-7.500,-0.992,2.672,-0.078
2019-05-26-01:43:27.319658,0.311,-0.141,10.136,-7.700,-14.600,-8.000,-1.258,2.406,0.016
2019-05-26-01:43:27.429760,0.290,-0.139,10.138,-7.900,-14.700,-6.500,-0.859,2.602,0.172
2019-05-26-01:43:27.539632,0.304,-0.153,10.114,-6.600,-14.600,-7.300,-1.211,2.469,0.078
2019-05-26-01:43:27.649300,0.280,-0.163,10.112,-6.800,-13.700,-6.500,-0.875,2.594,-0.047
2019-05-26-01:43:27.759268,0.297,-0.141,10.122,-7.300,-14.100,-7.400,-0.867,2.742,-0.164
2019-05-26-01:43:27.869201,0.287,-0.146,10.112,-7.600,-13.800,-6.800,-1.227,2.844,-0.164
2019-05-26-01:43:27.978969,0.294,-0.132,10.136,-7.000,-14.800,-7.100,-1.086,2.438,-0.148
2019-05-26-01:43:28.088773,0.301,-0.153,10.124,-7.100,-13.900,-7.000,-0.984,2.828,-0.297
2019-05-26-01:43:28.198461,0.285,-0.148,10.119,-7.200,-13.800,-6.200,-0.875,2.836,0.102
2019-05-26-01:43:28.308016,0.290,-0.139,10.126,-8.100,-14.700,-7.600,-1.133,2.625,-0.211
2019-05-26-01:43:28.417664,0.294,-0.146,10.143,-7.400,-14.600,-7.000,-1.016,2.539,-0.234
2019-05-26-01:43:28.527647,0.292,-0.141,10.148,-7.100,-14.300,-7.200,-1.109,2.914,-0.164
2019-05-26-01:43:28.637280,0.292,-0.156,10.124,-7.000,-13.600,-6.100,-1.398,2.828,-0.180
2019-05-26-01:43:28.747005,0.299,-0.146,10.129,-7.500,-14.300,-7.100,-0.984,2.805,-0.273
2019-05-26-01:43:28.856788,0.297,-0.148,10.131,-7.900,-14.200,-6.700,-0.609,2.742,0.008
2019-05-26-01:43:28.967229,0.273,-0.156,10.119,-6.900,-14.100,-5.700,-1.188,2.672,-0.023
2019-05-26-01:43:29.077192,0.294,-0.144,10.131,-7.900,-14.300,-7.000,-0.742,2.570,-0.344
2019-05-26-01:43:29.187090,0.280,-0.158,10.117,-7.900,-13.800,-7.500,-1.070,2.461,-0.078
2019-05-26-01:43:29.296830,0.292,-0.163,10.110,-6.800,-14.100,-6.400,-1.094,2.711,-0.273
2019-05-26-01:43:29.406659,0.287,-0.165,10.119,-7.300,-14.600,-6.900,-1.039,2.734,-0.273
2019-05-26-01:43:29.516409,0.287,-0.153,10.122,-7.500,-14.000,-6.100,-0.992,2.734,-0.023
2019-05-26-01:43:29.626192,0.290,-0.146,10.112,-7.600,-13.600,-6.100,-0.727,2.734,-0.094
2019-05-26-01:43:29.736217,0.311,-0.156,10.148,-7.400,-14.600,-8.200,-0.742,2.820,-0.047
2019-05-26-01:43:29.845902,0.290,-0.144,10.131,-7.700,-14.200,-6.100,-1.453,2.625,-0.094
2019-05-26-01:43:29.955547,0.282,-0.158,10.136,-6.800,-14.800,-7.900,-1.406,2.562,-0.320
2019-05-26-01:43:30.065319,0.297,-0.158,10.117,-7.800,-13.900,-6.800,-1.141,2.820,-0.250
2019-05-26-01:43:30.175340,0.306,-0.163,10.119,-7.800,-13.600,-6.400,-1.211,2.766,-0.141
2019-05-26-01:43:30.284962,0.301,-0.141,10.098,-6.900,-15.100,-7.300,-1.070,2.648,-0.250
2019-05-26-01:43:30.394639,0.282,-0.141,10.110,-7.400,-14.500,-6.900,-0.891,2.820,-0.234
2019-05-26-01:43:30.504357,0.285,-0.148,10.117,-7.700,-14.900,-7.800,-1.250,2.734,-0.180
2019-05-26-01:43:30.614048,0.285,-0.151,10.126,-7.800,-14.900,-6.500,-1.070,2.617,0.055
2019-05-26-01:43:30.723656,0.280,-0.136,10.117,-7.800,-15.000,-6.500,-0.852,2.734,-0.141
2019-05-26-01:43:30.833253,0.309,-0.146,10.100,-6.800,-14.400,-7.900,-1.000,2.750,0.062
2019-05-26-01:43:30.943100,0.282,-0.153,10.134,-7.500,-13.600,-7.000,-1.141,2.539,-0.250
2019-05-26-01:43:31.052930,0.309,-0.151,10.114,-7.500,-14.100,-7.200,-0.922,2.547,-0.070
2019-05-26-01:43:31.162612,0.299,-0.148,10.119,-7.500,-15.300,-7.000,-1.141,2.719,-0.023
2019-05-26-01:43:31.272248,0.278,-0.146,10.122,-8.300,-14.400,-5.700,-0.922,2.781,-0.227
2019-05-26-01:43:31.382168,0.282,-0.156,10.102,-7.900,-15.000,-8.300,-1.219,2.586,0.078
2019-05-26-01:43:31.492054,0.285,-0.151,10.117,-7.300,-13.300,-7.100,-0.961,2.781,-0.297
2019-05-26-01:43:31.601751,0.290,-0.136,10.129,-7.200,-14.000,-7.300,-1.086,2.523,-0.164
2019-05-26-01:43:31.711386,0.287,-0.156,10.124,-8.300,-14.000,-8.800,-1.211,2.859,0.039
2019-05-26-01:43:31.821069,0.299,-0.158,10.126,-7.200,-14.700,-7.400,-1.047,2.953,-0.023
2019-05-26-01:43:31.930703,0.294,-0.158,10.134,-7.400,-13.500,-6.500,-1.039,2.648,-0.117
2019-05-26-01:43:32.040469,0.301,-0.160,10.114,-6.900,-14.000,-8.500,-1.164,2.648,-0.234
2019-05-26-01:43:32.150520,0.278,-0.146,10.129,-6.700,-13.300,-6.700,-1.352,2.977,-0.023
2019-05-26-01:43:32.260264,0.290,-0.134,10.122,-7.100,-14.200,-7.900,-1.070,2.656,-0.203
2019-05-26-01:43:32.369891,0.278,-0.151,10.126,-6.900,-14.800,-6.600,-1.250,2.695,-0.055
2019-05-26-01:43:32.479565,0.297,-0.153,10.122,-6.900,-14.600,-6.600,-0.938,2.648,-0.180
2019-05-26-01:43:32.593898,0.290,-0.153,10.129,-6.900,-13.300,-7.700,-0.586,2.609,-0.148
2019-05-26-01:43:32.703675,0.282,-0.146,10.124,-7.400,-14.000,-6.300,-1.109,2.586,-0.070
2019-05-26-01:43:32.813540,0.301,-0.141,10.126,-7.500,-13.700,-7.200,-1.336,2.766,-0.148
2019-05-26-01:43:32.923236,0.297,-0.165,10.136,-6.900,-14.500,-7.900,-1.094,2.648,-0.203
2019-05-26-01:43:33.033050,0.304,-0.144,10.122,-7.400,-14.300,-7.300,-1.133,2.680,-0.305
2019-05-26-01:43:33.142665,0.292,-0.160,10.122,-7.000,-14.300,-7.200,-1.492,2.742,-0.102
2019-05-26-01:43:33.252305,0.282,-0.151,10.131,-7.300,-14.800,-7.800,-1.047,2.758,0.016
2019-05-26-01:43:33.362356,0.282,-0.158,10.110,-7.700,-14.800,-6.800,-1.117,2.695,-0.180
2019-05-26-01:43:33.472168,0.282,-0.146,10.134,-6.800,-13.500,-6.400,-0.945,2.758,-0.281
2019-05-26-01:43:33.582107,0.282,-0.153,10.117,-7.500,-14.300,-6.300,-1.016,2.828,0.008
2019-05-26-01:43:33.691752,0.280,-0.141,10.119,-7.400,-13.500,-7.500,-1.117,2.656,-0.180
2019-05-26-01:43:33.801754,0.292,-0.122,10.122,-7.100,-14.000,-8.000,-0.914,2.844,-0.055
2019-05-26-01:43:33.911397,0.270,-0.153,10.122,-8.500,-14.000,-6.900,-1.016,2.727,0.039
2019-05-26-01:43:34.021263,0.299,-0.139,10.117,-7.100,-14.000,-6.000,-1.227,2.977,-0.047
2019-05-26-01:43:34.131173,0.290,-0.163,10.107,-7.000,-15.400,-7.300,-0.922,2.844,-0.250
2019-05-26-01:43:34.240813,0.290,-0.144,10.136,-7.100,-13.800,-7.300,-0.562,2.570,-0.250
2019-05-26-01:43:34.350502,0.301,-0.160,10.124,-6.900,-13.900,-7.600,-1.023,2.594,-0.125
2019-05-26-01:43:34.460340,0.304,-0.151,10.122,-7.900,-14.300,-6.300,-0.859,2.711,0.195
2019-05-26-01:43:34.570518,0.285,-0.158,10.119,-8.200,-14.400,-6.000,-0.922,2.914,-0.344
2019-05-26-01:43:34.680351,0.282,-0.148,10.141,-7.700,-14.700,-6.500,-0.852,2.820,-0.141
2019-05-26-01:43:34.790233,0.282,-0.141,10.119,-7.000,-15.100,-7.700,-1.016,2.586,-0.023
2019-05-26-01:43:34.899926,0.292,-0.144,10.141,-7.500,-14.100,-7.600,-0.922,2.680,-0.047
2019-05-26-01:43:35.009911,0.278,-0.156,10.124,-7.500,-13.900,-7.100,-1.508,2.625,0.055
2019-05-26-01:43:35.119659,0.290,-0.151,10.126,-8.000,-14.300,-5.200,-1.047,2.680,-0.070
2019-05-26-01:43:35.229280,0.280,-0.163,10.107,-8.700,-14.100,-5.900,-0.961,2.508,-0.070
2019-05-26-01:43:35.338894,0.290,-0.146,10.112,-7.800,-13.700,-6.200,-0.617,3.109,-0.164
2019-05-26-01:43:35.458049,0.304,-0.156,10.136,-7.000,-14.000,-7.400,-1.336,2.719,-0.453
2019-05-26-01:43:35.567920,0.301,-0.160,10.098,-6.500,-14.000,-6.800,-1.352,2.633,-0.258
2019-05-26-01:43:35.677542,0.290,-0.158,10.119,-7.400,-14.800,-6.900,-1.453,2.594,-0.078
2019-05-26-01:43:35.787554,0.285,-0.163,10.122,-6.900,-15.300,-6.600,-1.133,2.680,-0.180
2019-05-26-01:43:35.897539,0.294,-0.139,10.134,-7.700,-13.200,-7.500,-1.445,2.766,-0.281
2019-05-26-01:43:36.007417,0.297,-0.146,10.114,-7.000,-13.800,-5.900,-0.750,2.852,-0.227
2019-05-26-01:43:36.117074,0.292,-0.136,10.117,-7.100,-14.000,-6.500,-1.617,2.586,-0.250
2019-05-26-01:43:36.227020,0.292,-0.148,10.143,-6.700,-14.500,-7.400,-0.727,3.039,-0.203
2019-05-26-01:43:36.336741,0.287,-0.167,10.107,-7.700,-14.200,-9.100,-0.898,2.547,-0.164
2019-05-26-01:43:36.446542,0.294,-0.146,10.158,-7.600,-14.600,-6.900,-0.828,2.633,-0.477
2019-05-26-01:43:36.556696,0.297,-0.153,10.126,-7.500,-15.400,-6.300,-1.133,2.586,-0.250
2019-05-26-01:43:36.666389,0.285,-0.153,10.110,-8.300,-14.400,-5.800,-0.727,2.508,-0.094
2019-05-26-01:43:36.776105,0.292,-0.151,10.117,-8.000,-13.500,-8.200,-1.156,2.719,-0.070
2019-05-26-01:43:36.885926,0.285,-0.156,10.122,-7.300,-14.200,-7.200,-0.891,2.547,-0.188
2019-05-26-01:43:36.995924,0.304,-0.156,10.110,-7.200,-13.600,-6.200,-1.047,2.547,-0.305
2019-05-26-01:43:37.105688,0.292,-0.139,10.141,-7.700,-13.700,-5.700,-1.133,2.867,-0.047
2019-05-26-01:43:37.215392,0.318,-0.141,10.136,-6.700,-14.100,-6.100,-1.211,2.734,0.016
2019-05-26-01:43:37.324975,0.294,-0.144,10.122,-7.900,-15.000,-5.500,-0.938,2.695,-0.273
2019-05-26-01:43:37.434919,0.309,-0.146,10.119,-8.000,-14.700,-8.000,-1.070,2.570,-0.273
2019-05-26-01:43:37.544818,0.292,-0.153,10.138,-8.300,-13.900,-6.500,-1.203,2.781,-0.023
2019-05-26-01:43:37.654739,0.292,-0.158,10.114,-6.600,-14.800,-5.300,-0.750,2.547,-0.273
2019-05-26-01:43:37.764574,0.278,-0.153,10.131,-7.400,-14.400,-7.300,-1.109,2.852,-0.055
2019-05-26-01:43:37.874559,0.282,-0.144,10.124,-6.700,-15.400,-7.300,-0.984,2.672,-0.250
2019-05-26-01:43:37.984272,0.304,-0.151,10.110,-7.700,-15.000,-8.300,-1.305,2.633,-0.344
2019-05-26-01:43:38.094088,0.294,-0.144,10.114,-7.800,-15.000,-6.800,-0.750,2.633,-0.281
2019-05-26-01:43:38.204170,0.299,-0.156,10.122,-8.200,-14.200,-7.200,-1.219,2.531,0.031
2019-05-26-01:43:38.313889,0.301,-0.141,10.124,-7.500,-14.800,-5.400,-0.836,2.531,0.062
2019-05-26-01:43:38.423655,0.287,-0.163,10.131,-7.100,-14.300,-6.700,-1.211,2.625,-0.141
2019-05-26-01:43:38.533504,0.292,-0.156,10.119,-7.300,-13.700,-6.100,-0.891,2.586,-0.164
2019-05-26-01:43:38.643483,0.297,-0.153,10.131,-6.600,-14.100,-5.200,-1.352,2.648,-0.203
2019-05-26-01:43:38.753256,0.311,-0.151,10.124,-8.500,-15.100,-5.100,-0.820,2.867,-0.125
2019-05-26-01:43:38.862907,0.273,-0.144,10.124,-8.200,-14.700,-5.500,-1.359,2.523,-0.250
2019-05-26-01:43:38.972465,0.294,-0.158,10.110,-8.000,-14.600,-5.900,-1.180,2.766,-0.117
2019-05-26-01:43:39.082434,0.285,-0.144,10.134,-6.400,-14.100,-7.300,-0.961,2.586,-0.281
2019-05-26-01:43:39.192132,0.292,-0.156,10.134,-7.600,-14.200,-6.500,-0.945,2.820,-0.047
2019-05-26-01:43:39.301720,0.294,-0.148,10.126,-8.000,-14.600,-7.800,-1.117,2.914,-0.070
2019-05-26-01:43:39.411681,0.290,-0.151,10.110,-8.100,-14.300,-6.500,-1.359,2.891,-0.102
2019-05-26-01:43:39.521600,0.282,-0.148,10.124,-8.000,-14.300,-7.100,-0.992,2.844,-0.031
2019-05-26-01:43:39.631258,0.282,-0.158,10.117,-7.300,-14.200,-7.200,-1.344,2.711,0.055
2019-05-26-01:43:39.741518,0.287,-0.151,10.134,-7.700,-14.800,-6.500,-0.891,2.500,-0.008
2019-05-26-01:43:39.851428,0.292,-0.156,10.122,-8.000,-14.100,-7.700,-0.742,2.461,-0.203
2019-05-26-01:43:39.961242,0.287,-0.165,10.136,-7.600,-13.900,-7.000,-1.266,2.586,-0.164
2019-05-26-01:43:40.071121,0.294,-0.148,10.105,-8.100,-14.500,-7.100,-1.547,2.586,-0.047
2019-05-26-01:43:40.180922,0.287,-0.153,10.138,-7.900,-14.800,-5.900,-1.117,2.820,-0.125
2019-05-26-01:43:40.290644,0.294,-0.136,10.131,-7.500,-14.800,-5.500,-0.961,2.719,-0.359
2019-05-26-01:43:40.400463,0.290,-0.158,10.129,-7.700,-14.700,-5.900,-1.188,2.805,-0.008
2019-05-26-01:43:40.511372,0.297,-0.148,10.126,-6.800,-14.500,-6.700,-1.352,2.656,-0.117
2019-05-26-01:43:40.621410,0.313,-0.148,10.141,-7.300,-14.100,-5.700,-0.875,2.539,-0.227
2019-05-26-01:43:40.731359,0.285,-0.153,10.129,-7.800,-14.600,-7.200,-0.969,2.609,-0.047
2019-05-26-01:43:40.841102,0.287,-0.156,10.110,-7.400,-14.800,-6.000,-1.211,2.586,-0.273
2019-05-26-01:43:40.951450,0.301,-0.144,10.124,-7.800,-14.500,-5.100,-1.180,2.539,-0.102
2019-05-26-01:43:41.061362,0.294,-0.160,10.119,-7.300,-15.100,-6.600,-1.016,2.844,-0.141
2019-05-26-01:43:41.171083,0.280,-0.146,10.119,-7.400,-14.700,-6.400,-1.047,2.609,-0.078
2019-05-26-01:43:41.280788,0.285,-0.146,10.124,-7.500,-13.900,-6.600,-0.945,2.891,-0.227
2019-05-26-01:43:41.390541,0.306,-0.153,10.124,-8.000,-13.300,-6.300,-0.703,2.891,-0.281
2019-05-26-01:43:41.500492,0.285,-0.151,10.134,-7.300,-14.000,-7.400,-0.891,2.797,-0.297
2019-05-26-01:43:41.610331,0.287,-0.156,10.117,-7.700,-13.700,-7.000,-1.375,2.711,-0.180
2019-05-26-01:43:41.720105,0.290,-0.153,10.114,-7.700,-14.700,-7.500,-1.047,2.500,-0.102
2019-05-26-01:43:41.830077,0.301,-0.146,10.129,-8.200,-13.700,-7.100,-1.266,2.820,-0.055
2019-05-26-01:43:41.939764,0.292,-0.158,10.119,-7.200,-15.100,-6.100,-0.531,2.961,0.039
2019-05-26-01:43:42.049566,0.299,-0.141,10.124,-6.900,-15.200,-7.600,-1.070,2.766,-0.164
2019-05-26-01:43:42.159534,0.297,-0.146,10.146,-7.100,-14.200,-6.100,-0.805,2.609,-0.125
2019-05-26-01:43:42.269283,0.292,-0.153,10.124,-7.600,-14.000,-5.900,-1.250,2.734,-0.008
2019-05-26-01:43:42.378974,0.282,-0.163,10.122,-7.900,-13.800,-7.400,-0.898,2.680,-0.164
2019-05-26-01:43:42.488776,0.285,-0.144,10.126,-7.700,-14.300,-8.400,-0.609,2.711,-0.125
2019-05-26-01:43:42.598704,0.287,-0.136,10.117,-7.500,-14.900,-7.900,-0.719,2.906,0.039
2019-05-26-01:43:42.708483,0.297,-0.144,10.124,-6.700,-13.800,-7.600,-0.508,2.891,-0.023
2019-05-26-01:43:42.818538,0.299,-0.144,10.129,-7.800,-13.800,-7.400,-1.273,2.820,-0.070
2019-05-26-01:43:42.928385,0.301,-0.153,10.134,-7.700,-13.600,-7.700,-1.117,2.797,-0.164
2019-05-26-01:43:43.038495,0.282,-0.144,10.134,-7.900,-14.100,-7.100,-0.430,2.758,-0.320
2019-05-26-01:43:43.148170,0.301,-0.153,10.119,-7.600,-13.700,-6.400,-1.328,2.883,-0.234
2019-05-26-01:43:43.257806,0.280,-0.144,10.119,-7.800,-13.400,-7.400,-1.070,2.695,-0.203
2019-05-26-01:43:43.367710,0.299,-0.129,10.112,-7.300,-13.600,-7.400,-0.984,2.625,-0.320
2019-05-26-01:43:43.477628,0.290,-0.146,10.126,-7.600,-13.400,-8.600,-0.875,2.711,-0.359
2019-05-26-01:43:43.587513,0.290,-0.132,10.117,-7.800,-13.700,-6.200,-0.828,2.805,-0.188
2019-05-26-01:43:43.697311,0.287,-0.141,10.126,-7.600,-13.900,-7.700,-1.133,2.508,-0.094
2019-05-26-01:43:43.807123,0.292,-0.165,10.129,-7.100,-13.500,-7.500,-1.359,2.820,0.195
2019-05-26-01:43:43.918923,0.301,-0.144,10.122,-7.700,-14.800,-7.700,-0.875,2.797,0.008
2019-05-26-01:43:44.028777,0.270,-0.158,10.134,-7.900,-14.400,-7.500,-1.023,2.461,-0.078
2019-05-26-01:43:44.138515,0.294,-0.148,10.138,-7.900,-14.000,-7.000,-1.172,2.773,0.281
2019-05-26-01:43:44.248573,0.294,-0.146,10.119,-8.100,-14.400,-6.900,-1.188,2.758,-0.211
2019-05-26-01:43:44.358367,0.321,-0.151,10.126,-7.200,-14.400,-7.800,-0.891,2.781,-0.055
2019-05-26-01:43:44.468163,0.297,-0.144,10.112,-7.700,-14.900,-4.800,-0.781,2.914,-0.188
2019-05-26-01:43:44.578245,0.292,-0.151,10.138,-8.300,-14.500,-6.700,-1.078,3.000,-0.297
2019-05-26-01:43:44.687961,0.287,-0.148,10.100,-6.600,-14.600,-7.200,-1.047,2.625,-0.148
2019-05-26-01:43:44.797833,0.301,-0.156,10.117,-8.100,-14.300,-6.000,-1.070,2.805,-0.117
2019-05-26-01:43:44.907552,0.285,-0.136,10.117,-7.200,-14.400,-5.500,-0.820,2.758,-0.164
2019-05-26-01:43:45.017340,0.292,-0.141,10.126,-7.700,-13.100,-5.600,-1.000,3.055,0.078
2019-05-26-01:43:45.126983,0.285,-0.136,10.122,-7.900,-14.600,-7.000,-1.156,2.695,-0.203
2019-05-26-01:43:45.236562,0.290,-0.156,10.129,-7.000,-13.800,-6.600,-1.008,2.891,-0.344
2019-05-26-01:43:45.346234,0.285,-0.156,10.112,-8.100,-14.000,-6.400,-1.117,2.500,0.062
2019-05-26-01:43:45.456179,0.292,-0.158,10.141,-8.000,-15.100,-6.800,-1.328,2.625,-0.078
2019-05-26-01:43:45.566049,0.290,-0.156,10.117,-7.200,-14.900,-6.300,-0.625,2.695,-0.008
2019-05-26-01:43:45.675876,0.297,-0.136,10.122,-8.300,-14.900,-7.600,-0.852,2.984,0.086
2019-05-26-01:43:45.785941,0.280,-0.153,10.131,-7.400,-14.600,-7.400,-0.953,2.648,0.211
2019-05-26-01:43:45.895680,0.301,-0.153,10.107,-7.700,-14.300,-6.100,-0.922,2.805,-0.117
2019-05-26-01:43:46.005444,0.285,-0.156,10.117,-7.700,-13.900,-6.300,-0.992,2.633,-0.188
2019-05-26-01:43:46.115100,0.292,-0.146,10.112,-7.000,-13.700,-6.700,-2.000,2.719,-0.023
2019-05-26-01:43:46.224706,0.292,-0.148,10.146,-7.800,-14.500,-5.600,-0.703,2.766,-0.203
2019-05-26-01:43:46.334249,0.299,-0.146,10.134,-7.400,-14.500,-6.700,-1.164,2.891,-0.211
2019-05-26-01:43:46.443978,0.292,-0.136,10.105,-6.900,-14.200,-6.900,-1.164,2.594,-0.094
2019-05-26-01:43:46.553943,0.294,-0.156,10.126,-6.700,-15.700,-6.900,-1.039,2.508,-0.078
2019-05-26-01:43:46.664076,0.278,-0.151,10.100,-6.700,-15.000,-6.100,-0.656,2.500,-0.273
2019-05-26-01:43:46.774059,0.304,-0.139,10.119,-7.900,-14.200,-6.500,-1.352,2.734,-0.117
2019-05-26-01:43:46.883846,0.282,-0.153,10.117,-8.100,-15.000,-5.700,-0.969,2.781,-0.461
2019-05-26-01:43:46.993902,0.301,-0.141,10.100,-8.400,-13.800,-7.000,-0.969,2.883,-0.094
2019-05-26-01:43:47.103600,0.299,-0.163,10.131,-7.200,-13.900,-5.300,-1.180,2.695,-0.258
2019-05-26-01:43:47.213225,0.285,-0.163,10.143,-6.100,-14.800,-7.500,-0.891,2.586,-0.031
2019-05-26-01:43:47.322879,0.292,-0.136,10.117,-7.100,-14.100,-6.200,-1.383,2.711,0.016
2019-05-26-01:43:47.432812,0.304,-0.153,10.136,-6.500,-13.300,-5.300,-1.266,2.734,-0.148
2019-05-26-01:43:47.542825,0.282,-0.148,10.114,-7.000,-14.600,-6.000,-0.742,2.805,-0.055
2019-05-26-01:43:47.652478,0.299,-0.146,10.110,-6.900,-13.200,-6.400,-0.781,2.742,-0.359
2019-05-26-01:43:47.762963,0.287,-0.160,10.102,-7.300,-14.800,-5.500,-1.398,2.719,-0.117
2019-05-26-01:43:47.872977,0.297,-0.136,10.124,-7.600,-14.600,-5.300,-1.180,2.719,-0.031
2019-05-26-01:43:47.982993,0.290,-0.132,10.114,-6.300,-14.400,-7.200,-1.023,2.758,-0.102
2019-05-26-01:43:48.092767,0.287,-0.144,10.119,-7.700,-14.100,-7.600,-1.016,2.672,-0.141
2019-05-26-01:43:48.202753,0.273,-0.156,10.153,-6.800,-14.100,-6.700,-1.117,2.633,-0.250
2019-05-26-01:43:48.312412,0.287,-0.158,10.098,-7.200,-13.800,-7.400,-1.180,2.656,-0.203
2019-05-26-01:43:48.422192,0.282,-0.156,10.119,-8.100,-13.400,-6.700,-1.180,2.867,-0.305
2019-05-26-01:43:48.532114,0.290,-0.158,10.124,-6.600,-13.200,-7.400,-0.945,2.586,-0.078
2019-05-26-01:43:48.641778,0.290,-0.158,10.114,-7.200,-14.700,-6.400,-1.352,2.719,-0.250
2019-05-26-01:43:48.751445,0.306,-0.148,10.114,-7.700,-13.200,-5.200,-0.961,2.656,0.008
2019-05-26-01:43:48.861247,0.297,-0.165,10.134,-7.000,-13.800,-6.900,-1.328,2.766,-0.383
2019-05-26-01:43:48.971281,0.282,-0.165,10.114,-7.400,-13.400,-6.000,-1.008,2.992,-0.180
2019-05-26-01:43:49.081152,0.290,-0.144,10.129,-6.400,-14.100,-7.500,-1.234,2.758,-0.359
2019-05-26-01:43:49.190771,0.301,-0.146,10.126,-7.900,-15.000,-5.900,-1.227,2.766,-0.070
2019-05-26-01:43:49.300812,0.292,-0.153,10.129,-7.000,-13.400,-6.100,-1.016,2.695,-0.148
2019-05-26-01:43:49.410833,0.280,-0.153,10.138,-7.500,-14.300,-7.600,-1.445,2.656,-0.328
2019-05-26-01:43:49.520708,0.287,-0.156,10.129,-6.600,-14.600,-7.700,-0.961,2.586,-0.297
2019-05-26-01:43:49.630447,0.292,-0.160,10.100,-7.200,-14.400,-6.500,-1.086,2.625,-0.070
2019-05-26-01:43:49.740161,0.287,-0.146,10.124,-8.000,-14.300,-6.400,-0.766,2.680,-0.188
2019-05-26-01:43:49.850002,0.294,-0.151,10.114,-6.300,-14.200,-6.000,-0.742,2.648,-0.078
2019-05-26-01:43:49.959714,0.273,-0.170,10.136,-7.400,-13.800,-7.300,-0.914,2.734,-0.203
2019-05-26-01:43:50.069568,0.299,-0.148,10.117,-8.100,-14.400,-5.700,-1.258,2.703,0.016
2019-05-26-01:43:50.179528,0.278,-0.156,10.136,-6.800,-14.800,-8.400,-1.016,2.609,-0.102
2019-05-26-01:43:50.289162,0.299,-0.156,10.114,-7.700,-13.300,-7.000,-0.914,2.766,-0.164
2019-05-26-01:43:50.398887,0.292,-0.146,10.117,-7.000,-14.200,-5.900,-0.844,2.680,-0.141
2019-05-26-01:43:50.508793,0.301,-0.153,10.129,-7.500,-13.700,-5.400,-1.094,2.734,0.078
2019-05-26-01:43:50.618832,0.285,-0.151,10.138,-8.000,-13.800,-6.700,-1.258,2.656,-0.125
2019-05-26-01:43:50.728644,0.292,-0.151,10.114,-7.200,-14.300,-6.900,-1.188,2.711,-0.453
2019-05-26-01:43:50.838314,0.292,-0.144,10.134,-7.800,-14.200,-7.700,-1.133,2.828,-0.203
2019-05-26-01:43:50.948056,0.301,-0.151,10.124,-7.400,-14.100,-6.000,-0.773,2.594,-0.125
2019-05-26-01:43:51.057846,0.299,-0.144,10.112,-7.700,-13.000,-7.300,-0.914,2.570,-0.273
2019-05-26-01:43:51.167475,0.290,-0.136,10.117,-6.900,-14.800,-5.200,-1.039,2.844,-0.141
2019-05-26-01:43:51.277034,0.287,-0.151,10.134,-6.900,-14.000,-7.000,-0.914,2.766,-0.102
2019-05-26-01:43:51.386923,0.290,-0.134,10.124,-7.800,-13.400,-6.900,-1.016,2.758,-0.180
2019-05-26-01:43:51.496780,0.294,-0.156,10.138,-6.900,-13.600,-8.200,-1.039,2.766,-0.164
2019-05-26-01:43:51.606558,0.290,-0.165,10.131,-7.100,-13.400,-6.800,-1.008,2.828,-0.211
2019-05-26-01:43:51.716346,0.294,-0.144,10.129,-7.200,-13.800,-7.100,-0.797,2.711,-0.367
2019-05-26-01:43:51.826406,0.278,-0.167,10.107,-6.900,-14.200,-6.600,-0.898,2.695,-0.297
2019-05-26-01:43:51.936127,0.304,-0.158,10.134,-7.600,-14.500,-7.300,-1.094,2.469,0.016
2019-05-26-01:43:52.046027,0.282,-0.141,10.110,-7.300,-13.400,-7.500,-1.523,2.820,-0.180
2019-05-26-01:43:52.155762,0.297,-0.165,10.119,-5.900,-13.600,-5.100,-1.305,2.820,-0.141
2019-05-26-01:43:52.267321,0.285,-0.160,10.126,-6.900,-14.300,-6.700,-0.828,2.734,-0.273
2019-05-26-01:43:52.377013,0.285,-0.151,10.131,-7.000,-14.000,-7.000,-0.727,2.539,-0.328
2019-05-26-01:43:52.486892,0.290,-0.153,10.122,-6.900,-15.000,-7.500,-1.359,2.625,-0.125
2019-05-26-01:43:52.596930,0.309,-0.151,10.105,-6.800,-13.500,-7.100,-0.867,2.734,-0.227
2019-05-26-01:43:52.706858,0.294,-0.148,10.117,-6.300,-13.800,-6.400,-1.102,2.789,0.031
2019-05-26-01:43:52.816798,0.280,-0.148,10.091,-6.600,-13.800,-6.400,-1.180,2.625,-0.188
2019-05-26-01:43:52.926767,0.297,-0.146,10.134,-7.400,-13.400,-6.800,-0.922,2.578,0.086
2019-05-26-01:43:53.036825,0.278,-0.134,10.136,-6.900,-13.200,-5.800,-1.211,2.992,-0.164
2019-05-26-01:43:53.146820,0.297,-0.153,10.141,-6.500,-13.800,-5.900,-1.281,2.969,-0.203
2019-05-26-01:43:53.256521,0.290,-0.144,10.134,-6.600,-14.200,-7.900,-1.188,2.867,-0.234
2019-05-26-01:43:53.366214,0.301,-0.146,10.131,-7.100,-13.800,-6.400,-1.039,2.648,-0.227
2019-05-26-01:43:53.475890,0.301,-0.144,10.122,-6.800,-14.100,-5.700,-0.898,2.953,-0.102
2019-05-26-01:43:53.585765,0.299,-0.156,10.117,-7.600,-13.700,-6.500,-1.008,2.711,-0.078
2019-05-26-01:43:53.695433,0.287,-0.156,10.134,-6.300,-14.100,-6.000,-0.938,2.336,-0.008
2019-05-26-01:43:53.805456,0.290,-0.146,10.119,-7.200,-15.300,-6.200,-1.336,2.609,-0.211
2019-05-26-01:43:53.915118,0.285,-0.156,10.129,-7.500,-13.600,-7.200,-1.008,2.656,-0.070
2019-05-26-01:43:54.024966,0.287,-0.153,10.143,-7.400,-14.400,-7.700,-1.062,2.695,-0.328
2019-05-26-01:43:54.134625,0.294,-0.156,10.141,-8.100,-13.700,-7.400,-1.258,2.500,-0.117
2019-05-26-01:43:54.244604,0.297,-0.146,10.131,-6.800,-13.000,-6.300,-0.781,2.820,-0.023
2019-05-26-01:43:54.354282,0.294,-0.153,10.117,-7.400,-14.600,-6.200,-0.750,2.734,-0.148
2019-05-26-01:43:54.464094,0.282,-0.156,10.143,-6.600,-12.900,-5.300,-0.781,2.523,-0.141
2019-05-26-01:43:54.574061,0.290,-0.158,10.114,-6.900,-13.100,-7.000,-0.844,2.742,-0.258
2019-05-26-01:43:54.683799,0.273,-0.156,10.129,-6.900,-13.900,-7.200,-0.719,2.609,-0.125
2019-05-26-01:43:54.793428,0.292,-0.148,10.114,-7.500,-14.300,-6.000,-1.070,2.930,-0.164
2019-05-26-01:43:54.903247,0.282,-0.160,10.126,-6.900,-14.200,-5.900,-0.633,2.758,-0.273
2019-05-26-01:43:55.013306,0.299,-0.146,10.134,-6.200,-14.300,-7.200,-0.914,2.539,-0.305
2019-05-26-01:43:55.123035,0.282,-0.144,10.129,-6.900,-14.300,-6.400,-1.352,2.781,-0.125
2019-05-26-01:43:55.232658,0.285,-0.153,10.136,-7.400,-14.000,-7.800,-0.820,2.656,-0.102
2019-05-26-01:43:55.342288,0.290,-0.160,10.131,-6.600,-14.500,-6.500,-0.680,2.500,-0.078
2019-05-26-01:43:55.452272,0.285,-0.158,10.122,-7.000,-13.500,-6.900,-1.375,2.398,-0.180
2019-05-26-01:43:55.562329,0.292,-0.170,10.117,-7.200,-14.100,-7.200,-1.258,2.766,0.008
2019-05-26-01:43:55.672107,0.290,-0.148,10.134,-7.500,-12.700,-6.400,-0.938,2.734,-0.359
2019-05-26-01:43:55.781999,0.282,-0.158,10.117,-7.000,-13.800,-5.500,-0.961,2.742,-0.359
2019-05-26-01:43:55.891709,0.290,-0.148,10.112,-7.300,-15.000,-6.100,-0.820,2.547,-0.180
2019-05-26-01:43:56.001513,0.287,-0.148,10.134,-7.600,-14.300,-5.900,-0.844,2.570,-0.070
2019-05-26-01:43:56.111153,0.294,-0.158,10.131,-7.200,-14.200,-5.700,-1.211,2.656,-0.031
2019-05-26-01:43:56.221165,0.275,-0.160,10.119,-8.000,-14.100,-5.600,-0.969,2.781,-0.102
2019-05-26-01:43:56.330823,0.285,-0.153,10.131,-7.600,-14.100,-6.500,-1.016,2.695,-0.258
2019-05-26-01:43:56.440513,0.285,-0.151,10.122,-7.600,-14.300,-7.000,-0.797,2.797,-0.078
2019-05-26-01:43:56.550491,0.287,-0.146,10.134,-6.500,-13.500,-5.000,-0.672,2.766,-0.297
2019-05-26-01:43:56.660504,0.278,-0.148,10.107,-8.100,-13.400,-5.500,-0.875,2.586,0.086
2019-05-26-01:43:56.770339,0.301,-0.156,10.134,-7.100,-13.600,-7.100,-1.086,2.695,-0.203
2019-05-26-01:43:56.880258,0.273,-0.141,10.122,-8.400,-14.200,-7.700,-1.406,2.594,-0.164
2019-05-26-01:43:56.990059,0.290,-0.148,10.131,-7.600,-14.200,-6.600,-0.648,2.633,0.008
2019-05-26-01:43:57.099752,0.278,-0.151,10.122,-7.100,-13.800,-5.900,-0.805,2.984,0.078
2019-05-26-01:43:57.211135,0.309,-0.158,10.122,-7.100,-14.100,-8.500,-0.961,2.734,-0.328
2019-05-26-01:43:57.320898,0.273,-0.167,10.117,-7.700,-13.300,-7.100,-1.148,2.734,0.016
2019-05-26-01:43:57.430903,0.282,-0.158,10.131,-7.400,-13.700,-6.900,-0.984,2.766,-0.203
2019-05-26-01:43:57.540969,0.275,-0.151,10.112,-7.100,-14.000,-5.700,-0.602,2.797,-0.008
2019-05-26-01:43:57.650753,0.294,-0.156,10.119,-7.500,-13.700,-6.600,-0.984,2.734,-0.102
2019-05-26-01:43:57.760503,0.290,-0.153,10.129,-7.300,-14.200,-6.500,-1.422,2.656,-0.234
2019-05-26-01:43:57.870463,0.292,-0.144,10.107,-7.400,-13.500,-5.900,-1.117,2.625,-0.234
2019-05-26-01:43:57.980173,0.290,-0.144,10.122,-7.100,-14.000,-6.600,-1.086,2.734,-0.078
2019-05-26-01:43:58.090044,0.294,-0.158,10.126,-6.600,-13.500,-6.000,-0.805,2.648,-0.258
2019-05-26-01:43:58.199711,0.299,-0.156,10.124,-6.700,-14.300,-6.900,-0.953,2.789,0.039
2019-05-26-01:43:58.313245,0.290,-0.158,10.114,-7.100,-13.500,-6.600,-1.141,2.656,-0.258
2019-05-26-01:43:58.422982,0.297,-0.151,10.124,-7.600,-14.200,-5.500,-1.375,2.625,-0.094
2019-05-26-01:43:58.532818,0.285,-0.146,10.146,-7.700,-14.200,-5.600,-1.156,2.906,-0.180
2019-05-26-01:43:58.642850,0.292,-0.160,10.124,-7.200,-13.400,-6.000,-0.992,2.570,-0.250
2019-05-26-01:43:58.752612,0.297,-0.156,10.107,-7.800,-13.500,-6.700,-1.023,2.852,-0.141
2019-05-26-01:43:58.862428,0.306,-0.153,10.129,-8.000,-13.100,-8.000,-1.008,2.906,-0.055
2019-05-26-01:43:58.972192,0.313,-0.132,10.124,-7.300,-13.500,-6.500,-1.203,2.805,-0.070
2019-05-26-01:43:59.082297,0.301,-0.156,10.126,-7.200,-14.700,-6.000,-1.133,2.828,-0.078
2019-05-26-01:43:59.191976,0.280,-0.158,10.136,-7.300,-14.300,-6.100,-1.094,2.719,-0.180
2019-05-26-01:43:59.301672,0.290,-0.144,10.107,-7.200,-14.600,-6.900,-1.188,2.930,-0.305
2019-05-26-01:43:59.411455,0.292,-0.144,10.141,-7.500,-13.300,-7.000,-1.203,2.672,-0.125
2019-05-26-01:43:59.521233,0.285,-0.148,10.136,-8.100,-14.700,-6.200,-1.070,2.594,-0.227
2019-05-26-01:43:59.630857,0.309,-0.146,10.124,-6.900,-14.800,-6.700,-1.062,2.398,0.039
2019-05-26-01:43:59.740576,0.280,-0.160,10.126,-7.900,-13.700,-6.500,-0.852,2.805,-0.367
2019-05-26-01:43:59.850561,0.301,-0.153,10.126,-7.000,-14.000,-6.500,-1.242,2.734,-0.180
2019-05-26-01:43:59.960290,0.275,-0.151,10.134,-7.600,-13.500,-6.900,-0.805,2.828,-0.273
2019-05-26-01:44:00.070090,0.280,-0.148,10.093,-7.700,-14.500,-7.200,-0.672,2.711,-0.344
2019-05-26-01:44:00.179726,0.301,-0.153,10.122,-6.400,-13.000,-6.800,-1.023,2.805,-0.047
2019-05-26-01:44:00.289681,0.285,-0.151,10.117,-5.900,-12.600,-7.400,-1.250,2.648,-0.078
2019-05-26-01:44:00.399462,0.301,-0.148,10.105,-8.000,-13.100,-5.700,-1.094,2.797,-0.273
2019-05-26-01:44:00.509273,0.290,-0.151,10.122,-7.300,-14.500,-6.800,-0.539,2.656,-0.258
2019-05-26-01:44:00.618948,0.297,-0.144,10.134,-7.600,-14.300,-5.400,-0.984,2.594,-0.117
2019-05-26-01:44:00.730675,0.292,-0.156,10.124,-6.900,-15.000,-6.500,-0.883,2.773,0.148
2019-05-26-01:44:00.840406,0.290,-0.156,10.117,-7.600,-12.800,-6.400,-0.969,2.523,-0.203
2019-05-26-01:44:00.950325,0.282,-0.144,10.107,-7.200,-13.700,-5.700,-0.805,2.742,-0.281
2019-05-26-01:44:01.060455,0.294,-0.134,10.122,-8.000,-13.000,-7.200,-0.828,2.961,0.031
2019-05-26-01:44:01.170189,0.273,-0.158,10.131,-7.200,-14.400,-6.400,-1.055,2.812,0.102
2019-05-26-01:44:01.279786,0.285,-0.146,10.131,-8.500,-13.700,-5.900,-1.180,2.453,-0.117
2019-05-26-01:44:01.389948,0.294,-0.158,10.114,-8.600,-13.100,-8.600,-0.797,2.625,0.008
2019-05-26-01:44:01.499925,0.309,-0.156,10.119,-6.800,-14.400,-6.700,-1.016,2.711,-0.094
2019-05-26-01:44:01.609756,0.282,-0.151,10.117,-7.500,-14.000,-5.900,-0.781,2.562,-0.055
2019-05-26-01:44:01.719471,0.290,-0.151,10.141,-6.800,-13.900,-6.300,-1.039,2.852,-0.102
2019-05-26-01:44:01.829244,0.278,-0.148,10.131,-8.000,-13.200,-5.600,-1.227,2.938,-0.305
2019-05-26-01:44:01.938866,0.297,-0.160,10.126,-7.200,-13.400,-7.000,-0.625,2.828,-0.047
2019-05-26-01:44:02.048748,0.290,-0.153,10.105,-6.800,-14.600,-6.300,-0.453,2.797,-0.203
2019-05-26-01:44:02.158432,0.294,-0.148,10.131,-7.600,-13.400,-8.600,-0.867,2.844,-0.023
2019-05-26-01:44:02.268497,0.275,-0.148,10.122,-7.400,-13.700,-5.600,-1.203,2.680,-0.141
2019-05-26-01:44:02.379691,0.280,-0.153,10.126,-7.700,-13.300,-7.600,-1.453,2.820,-0.094
2019-05-26-01:44:02.493579,0.287,-0.148,10.117,-7.500,-14.000,-7.200,-1.258,2.695,-0.188
2019-05-26-01:44:02.603724,0.275,-0.156,10.141,-6.900,-14.300,-6.600,-0.797,2.680,-0.273
2019-05-26-01:44:02.713394,0.297,-0.158,10.107,-8.200,-14.100,-7.200,-0.859,2.617,0.125
2019-05-26-01:44:02.823255,0.299,-0.158,10.107,-8.100,-13.500,-6.600,-1.258,2.586,-0.250
2019-05-26-01:44:02.933119,0.290,-0.165,10.110,-7.200,-12.900,-7.200,-0.727,2.695,-0.031
2019-05-26-01:44:03.042977,0.280,-0.167,10.114,-7.500,-14.600,-6.800,-1.547,2.883,-0.320
2019-05-26-01:44:03.152639,0.292,-0.146,10.124,-7.600,-13.300,-6.500,-1.039,2.891,-0.188
2019-05-26-01:44:03.262400,0.297,-0.148,10.138,-7.500,-14.800,-6.700,-1.164,2.844,-0.273
2019-05-26-01:44:03.372305,0.275,-0.151,10.110,-7.000,-14.500,-5.800,-1.164,2.711,-0.078
2019-05-26-01:44:03.482545,0.294,-0.160,10.110,-6.300,-14.100,-6.700,-0.719,2.625,-0.258
2019-05-26-01:44:03.592424,0.285,-0.151,10.129,-6.700,-14.600,-6.100,-1.047,2.766,-0.148
2019-05-26-01:44:03.702266,0.292,-0.146,10.124,-6.800,-14.000,-6.200,-1.133,2.695,-0.297
2019-05-26-01:44:03.812327,0.290,-0.158,10.112,-7.400,-14.200,-6.100,-1.148,2.883,0.062
2019-05-26-01:44:03.922086,0.270,-0.148,10.146,-7.700,-14.400,-7.800,-0.852,2.867,-0.070
2019-05-26-01:44:04.031959,0.299,-0.144,10.114,-8.000,-15.100,-6.800,-0.852,2.539,-0.102
2019-05-26-01:44:04.141628,0.282,-0.144,10.126,-7.600,-13.900,-5.900,-1.234,2.508,-0.141
2019-05-26-01:44:04.251215,0.287,-0.158,10.126,-7.100,-14.300,-5.700,-0.922,2.625,-0.078
2019-05-26-01:44:04.360881,0.290,-0.156,10.122,-7.500,-13.600,-6.500,-1.172,2.844,0.078
2019-05-26-01:44:04.470665,0.287,-0.146,10.122,-7.400,-13.900,-7.500,-0.539,2.938,-0.023
2019-05-26-01:44:04.580503,0.290,-0.148,10.129,-7.800,-14.000,-8.000,-0.844,2.828,-0.281
2019-05-26-01:44:04.690753,0.299,-0.148,10.131,-7.100,-14.900,-7.100,-0.562,2.852,-0.148
2019-05-26-01:44:04.800540,0.290,-0.151,10.102,-7.600,-13.500,-7.200,-0.984,2.648,-0.164
2019-05-26-01:44:04.910446,0.299,-0.151,10.117,-7.100,-14.800,-6.300,-1.023,2.828,-0.031
2019-05-26-01:44:05.020525,0.287,-0.144,10.126,-6.900,-14.600,-6.200,-0.633,2.656,-0.070
2019-05-26-01:44:05.130341,0.294,-0.141,10.126,-7.200,-14.800,-7.500,-1.094,2.766,-0.070
2019-05-26-01:44:05.239990,0.287,-0.158,10.143,-7.000,-14.000,-7.100,-0.844,2.656,-0.359
2019-05-26-01:44:05.349545,0.292,-0.163,10.117,-6.400,-14.400,-6.200,-0.922,2.797,-0.250
2019-05-26-01:44:05.459279,0.282,-0.146,10.146,-6.800,-13.300,-7.400,-0.648,2.883,-0.031
2019-05-26-01:44:05.569100,0.287,-0.153,10.110,-6.600,-14.600,-6.700,-0.945,2.547,-0.008
2019-05-26-01:44:05.678754,0.287,-0.163,10.150,-6.400,-14.600,-7.500,-1.016,2.586,-0.078
2019-05-26-01:44:05.788532,0.290,-0.148,10.112,-7.400,-14.300,-6.500,-1.375,2.680,-0.320
2019-05-26-01:44:05.899291,0.290,-0.153,10.129,-7.100,-15.500,-6.600,-1.227,2.758,-0.117
2019-05-26-01:44:06.009352,0.299,-0.151,10.131,-7.900,-14.700,-6.700,-0.641,2.734,0.188
2019-05-26-01:44:06.119078,0.290,-0.136,10.126,-7.100,-13.900,-6.400,-1.023,2.680,-0.188
2019-05-26-01:44:06.229052,0.294,-0.156,10.124,-8.700,-14.700,-7.100,-0.945,2.734,-0.094
2019-05-26-01:44:06.338768,0.294,-0.153,10.114,-7.600,-14.300,-6.800,-0.797,2.906,-0.227
2019-05-26-01:44:06.448587,0.287,-0.160,10.129,-7.400,-13.800,-7.300,-0.969,2.906,-0.320
2019-05-26-01:44:06.558659,0.287,-0.151,10.124,-7.600,-14.700,-7.600,-0.797,2.625,-0.180
2019-05-26-01:44:06.668480,0.297,-0.163,10.124,-7.400,-14.100,-7.400,-0.969,2.633,-0.055
2019-05-26-01:44:06.778246,0.280,-0.148,10.134,-6.800,-14.200,-5.200,-1.016,2.586,0.039
2019-05-26-01:44:06.888021,0.301,-0.153,10.122,-8.100,-14.000,-6.400,-1.008,2.719,-0.453
2019-05-26-01:44:06.997872,0.280,-0.158,10.124,-6.900,-12.000,-5.900,-0.852,2.438,-0.180
2019-05-26-01:44:07.107904,0.309,-0.153,10.124,-7.700,-14.900,-7.500,-1.211,2.828,-0.008
2019-05-26-01:44:07.217569,0.301,-0.156,10.131,-6.900,-15.800,-7.000,-1.109,2.781,-0.320
2019-05-26-01:44:07.327147,0.297,-0.153,10.146,-7.600,-14.400,-7.600,-1.203,2.680,-0.281
2019-05-26-01:44:07.437045,0.292,-0.156,10.124,-7.200,-14.100,-7.600,-1.211,2.672,0.102
2019-05-26-01:44:07.546928,0.292,-0.146,10.131,-7.300,-13.700,-7.200,-0.969,2.547,-0.461
2019-05-26-01:44:07.656771,0.280,-0.151,10.119,-6.800,-15.000,-7.500,-1.258,2.891,-0.148
2019-05-26-01:44:07.766477,0.292,-0.151,10.122,-8.200,-13.800,-8.400,-1.203,2.852,-0.180
2019-05-26-01:44:07.876461,0.306,-0.156,10.122,-7.900,-14.300,-7.700,-1.203,2.438,-0.164
2019-05-26-01:44:07.986373,0.290,-0.163,10.119,-6.400,-14.300,-7.200,-0.992,2.711,-0.078
2019-05-26-01:44:08.096181,0.294,-0.163,10.112,-7.700,-14.000,-6.200,-1.109,2.570,-0.180
2019-05-26-01:44:08.206389,0.292,-0.148,10.138,-6.900,-14.200,-7.300,-1.117,2.625,-0.102
2019-05-26-01:44:08.316347,0.301,-0.148,10.122,-8.300,-14.900,-5.900,-0.703,3.039,-0.227
2019-05-26-01:44:08.426156,0.285,-0.151,10.143,-8.900,-13.500,-7.800,-0.984,2.680,-0.117
2019-05-26-01:44:08.536143,0.280,-0.146,10.129,-8.200,-14.500,-6.600,-1.039,2.930,-0.203
2019-05-26-01:44:08.646223,0.285,-0.158,10.122,-8.400,-14.300,-6.900,-0.938,2.461,-0.180
2019-05-26-01:44:08.755952,0.282,-0.160,10.131,-8.200,-14.300,-7.800,-0.875,2.492,0.078
2019-05-26-01:44:08.865879,0.287,-0.139,10.129,-7.300,-14.400,-9.000,-0.984,2.672,-0.117
2019-05-26-01:44:08.975660,0.270,-0.134,10.134,-7.500,-14.500,-6.000,-0.891,2.992,0.188
2019-05-26-01:44:09.087457,0.292,-0.148,10.122,-7.800,-13.500,-6.500,-0.906,2.406,0.125
2019-05-26-01:44:09.197100,0.280,-0.146,10.114,-7.200,-13.900,-6.400,-1.438,2.531,0.086
2019-05-26-01:44:09.306739,0.282,-0.146,10.124,-6.600,-15.600,-7.200,-1.305,2.805,-0.070
2019-05-26-01:44:09.416829,0.290,-0.148,10.117,-7.600,-14.200,-6.700,-1.422,2.805,-0.320
2019-05-26-01:44:09.526735,0.294,-0.141,10.107,-7.600,-13.700,-6.400,-1.570,2.672,-0.250
2019-05-26-01:44:09.636411,0.287,-0.151,10.134,-7.400,-14.300,-5.500,-0.922,2.844,-0.141
2019-05-26-01:44:09.746203,0.297,-0.127,10.112,-7.700,-14.500,-7.000,-1.469,2.719,-0.141
2019-05-26-01:44:09.856198,0.280,-0.136,10.124,-7.800,-13.900,-6.800,-0.992,2.734,-0.008
2019-05-26-01:44:09.965857,0.278,-0.148,10.110,-8.100,-14.400,-7.400,-1.094,2.867,0.008
2019-05-26-01:44:10.075754,0.275,-0.160,10.138,-7.200,-14.400,-7.300,-1.016,2.570,-0.164
2019-05-26-01:44:10.185965,0.282,-0.156,10.126,-6.800,-14.600,-7.000,-1.164,2.742,-0.297
2019-05-26-01:44:10.295812,0.287,-0.148,10.150,-6.300,-14.200,-7.300,-0.992,2.695,-0.055
2019-05-26-01:44:10.405737,0.306,-0.141,10.117,-7.500,-14.000,-8.900,-0.727,2.797,-0.055
2019-05-26-01:44:10.515762,0.290,-0.146,10.129,-7.100,-14.500,-6.500,-0.602,2.562,-0.234
2019-05-26-01:44:10.625852,0.290,-0.153,10.124,-7.500,-14.200,-8.500,-0.578,2.758,-0.094
2019-05-26-01:44:10.735686,0.287,-0.153,10.129,-6.300,-14.300,-6.800,-0.828,2.641,0.188
2019-05-26-01:44:10.845457,0.287,-0.151,10.117,-7.100,-13.800,-6.300,-1.602,2.719,-0.078
2019-05-26-01:44:10.955495,0.280,-0.134,10.110,-7.500,-14.800,-6.100,-0.828,2.664,0.188
2019-05-26-01:44:11.065585,0.282,-0.160,10.126,-7.000,-13.600,-6.600,-1.133,2.672,-0.047
2019-05-26-01:44:11.175514,0.297,-0.158,10.134,-7.200,-13.600,-6.500,-1.398,2.609,-0.125
2019-05-26-01:44:11.285237,0.282,-0.151,10.100,-7.800,-13.500,-7.300,-0.992,2.797,-0.055
2019-05-26-01:44:11.395099,0.301,-0.151,10.117,-8.400,-14.700,-5.800,-1.023,2.680,-0.164
2019-05-26-01:44:11.504938,0.275,-0.139,10.119,-7.900,-14.400,-7.000,-1.109,2.570,-0.148
2019-05-26-01:44:11.614672,0.285,-0.151,10.122,-6.800,-13.600,-5.600,-1.000,2.836,0.016
2019-05-26-01:44:11.724389,0.306,-0.134,10.143,-7.300,-14.800,-5.500,-0.969,2.938,-0.305
2019-05-26-01:44:11.834407,0.299,-0.148,10.124,-7.000,-15.200,-8.400,-0.984,2.633,-0.148
2019-05-26-01:44:11.944192,0.292,-0.141,10.110,-8.400,-13.700,-8.300,-0.898,2.594,-0.180
2019-05-26-01:44:12.054092,0.275,-0.160,10.119,-5.900,-13.200,-5.300,-0.773,2.594,-0.438
2019-05-26-01:44:12.164052,0.285,-0.148,10.119,-7.000,-14.200,-6.700,-0.828,2.570,-0.188
2019-05-26-01:44:12.274149,0.321,-0.156,10.124,-7.500,-14.200,-9.000,-0.922,2.758,-0.281
2019-05-26-01:44:12.384373,0.292,-0.156,10.117,-7.100,-14.600,-6.000,-1.164,2.766,-0.367
2019-05-26-01:44:12.494434,0.280,-0.151,10.124,-6.400,-14.300,-5.100,-0.812,2.727,0.109
2019-05-26-01:44:12.604242,0.287,-0.151,10.105,-6.600,-14.500,-6.700,-0.992,2.711,-0.031
2019-05-26-01:44:12.714210,0.282,-0.160,10.129,-6.900,-14.400,-5.500,-0.898,2.906,-0.078
2019-05-26-01:44:12.824263,0.287,-0.146,10.119,-7.300,-14.300,-6.800,-1.188,2.656,-0.164
2019-05-26-01:44:12.934264,0.285,-0.146,10.102,-6.300,-13.600,-6.200,-0.750,2.766,-0.047
2019-05-26-01:44:13.044356,0.290,-0.146,10.126,-7.100,-13.100,-6.000,-1.133,2.977,-0.164
2019-05-26-01:44:13.154099,0.297,-0.141,10.112,-6.600,-13.800,-6.700,-1.062,2.547,0.008
2019-05-26-01:44:13.263752,0.292,-0.139,10.098,-7.100,-14.800,-7.600,-1.047,2.641,0.102
2019-05-26-01:44:13.373389,0.290,-0.163,10.117,-6.500,-13.900,-5.200,-1.016,2.891,-0.305
2019-05-26-01:44:13.483393,0.282,-0.160,10.119,-6.700,-15.400,-8.200,-1.039,2.594,-0.359
2019-05-26-01:44:13.593264,0.292,-0.144,10.102,-6.400,-15.200,-6.500,-1.211,2.531,0.242
2019-05-26-01:44:13.703221,0.290,-0.156,10.131,-6.800,-15.600,-6.400,-1.008,2.766,-0.070
2019-05-26-01:44:13.812958,0.299,-0.141,10.114,-7.500,-14.300,-6.500,-1.133,2.656,-0.031
2019-05-26-01:44:13.922858,0.294,-0.153,10.129,-7.400,-14.000,-6.500,-1.250,2.422,-0.141
2019-05-26-01:44:14.032669,0.297,-0.153,10.134,-6.600,-15.700,-5.400,-1.102,2.586,0.195
2019-05-26-01:44:14.142322,0.301,-0.151,10.134,-6.800,-14.900,-7.700,-0.914,2.711,-0.258
2019-05-26-01:44:14.252392,0.301,-0.160,10.100,-7.900,-14.100,-6.400,-0.695,2.781,-0.055
2019-05-26-01:44:14.362214,0.287,-0.165,10.124,-7.900,-14.800,-6.600,-0.969,2.648,0.195
2019-05-26-01:44:14.472348,0.294,-0.156,10.114,-7.900,-14.900,-8.300,-1.125,2.898,0.086
2019-05-26-01:44:14.582316,0.287,-0.158,10.124,-7.600,-14.000,-6.800,-1.094,2.523,-0.203
2019-05-26-01:44:14.692377,0.285,-0.151,10.138,-6.600,-14.100,-7.000,-1.164,2.766,-0.008
2019-05-26-01:44:14.802200,0.278,-0.151,10.124,-7.600,-14.100,-6.600,-1.039,2.648,-0.258
2019-05-26-01:44:14.912263,0.290,-0.158,10.136,-7.500,-13.900,-6.900,-1.578,3.016,-0.391
2019-05-26-01:44:15.022311,0.282,-0.151,10.117,-7.800,-13.900,-7.600,-1.133,2.672,-0.117
2019-05-26-01:44:15.132074,0.292,-0.158,10.126,-7.400,-14.400,-5.700,-0.828,2.820,-0.188
2019-05-26-01:44:15.241687,0.280,-0.146,10.124,-6.700,-13.700,-6.800,-1.445,2.695,-0.250
2019-05-26-01:44:15.353843,0.282,-0.146,10.117,-7.400,-14.500,-6.500,-0.945,2.609,-0.203
2019-05-26-01:44:15.464153,0.280,-0.160,10.105,-6.100,-14.700,-6.700,-0.867,2.805,-0.141
2019-05-26-01:44:15.574152,0.294,-0.156,10.114,-7.100,-14.800,-6.200,-0.797,2.742,-0.227
2019-05-26-01:44:15.683891,0.285,-0.165,10.122,-7.300,-13.400,-6.200,-1.141,2.891,-0.273
2019-05-26-01:44:15.793538,0.301,-0.167,10.119,-6.800,-13.800,-7.900,-0.969,2.539,-0.164
2019-05-26-01:44:15.903466,0.304,-0.139,10.129,-7.900,-14.300,-6.200,-1.289,2.477,-0.023
2019-05-26-01:44:16.013275,0.299,-0.170,10.124,-8.300,-14.200,-7.300,-1.086,2.625,-0.281
2019-05-26-01:44:16.123073,0.285,-0.163,10.122,-7.900,-14.700,-7.100,-1.008,2.734,-0.031
2019-05-26-01:44:16.232780,0.282,-0.151,10.126,-7.200,-14.200,-6.000,-0.914,2.742,-0.234
2019-05-26-01:44:16.342343,0.287,-0.158,10.107,-7.300,-14.800,-8.100,-0.867,2.844,-0.070
2019-05-26-01:44:16.452206,0.292,-0.160,10.119,-7.500,-14.500,-8.100,-1.047,2.758,0.102
2019-05-26-01:44:16.562125,0.278,-0.144,10.134,-7.400,-13.900,-6.000,-1.078,2.883,0.086
2019-05-26-01:44:16.672243,0.301,-0.151,10.124,-7.100,-15.300,-6.000,-0.781,2.797,0.125
2019-05-26-01:44:16.782068,0.292,-0.156,10.124,-6.500,-14.900,-7.300,-0.680,2.523,-0.141
2019-05-26-01:44:16.891965,0.304,-0.136,10.143,-6.800,-13.900,-7.600,-0.797,2.734,0.008
2019-05-26-01:44:17.001817,0.287,-0.163,10.126,-7.900,-15.000,-7.800,-0.758,2.562,0.086
2019-05-26-01:44:17.111849,0.299,-0.163,10.122,-8.500,-13.600,-6.800,-0.969,2.695,-0.141
2019-05-26-01:44:17.221527,0.287,-0.163,10.134,-6.800,-13.600,-6.000,-1.188,2.891,-0.047
2019-05-26-01:44:17.331114,0.278,-0.146,10.114,-8.800,-14.700,-8.300,-0.820,2.766,-0.305
2019-05-26-01:44:17.440760,0.299,-0.144,10.129,-6.900,-14.300,-8.500,-0.586,2.906,-0.203
2019-05-26-01:44:17.552769,0.280,-0.148,10.119,-7.100,-13.900,-6.900,-0.789,2.750,0.031
2019-05-26-01:44:17.662439,0.287,-0.151,10.126,-6.400,-14.900,-6.300,-0.562,2.547,-0.023
2019-05-26-01:44:17.772286,0.278,-0.153,10.119,-8.400,-14.400,-6.900,-1.188,2.750,0.039
2019-05-26-01:44:17.882360,0.273,-0.160,10.141,-6.800,-14.500,-7.000,-1.016,2.609,-0.258
2019-05-26-01:44:17.992213,0.282,-0.158,10.112,-7.000,-14.700,-7.300,-0.852,2.797,-0.258
2019-05-26-01:44:18.101995,0.297,-0.153,10.110,-7.300,-13.600,-7.100,-1.180,2.781,-0.328
2019-05-26-01:44:18.211625,0.292,-0.151,10.141,-7.200,-15.100,-7.600,-0.945,2.711,-0.078
2019-05-26-01:44:18.321594,0.292,-0.146,10.131,-6.500,-13.500,-7.700,-0.875,2.820,0.078
2019-05-26-01:44:18.431299,0.299,-0.146,10.138,-7.800,-14.800,-6.800,-1.172,2.703,0.016
2019-05-26-01:44:18.541300,0.297,-0.141,10.114,-7.900,-15.700,-7.400,-0.719,2.977,-0.055
2019-05-26-01:44:18.651103,0.287,-0.151,10.110,-6.900,-14.100,-7.100,-1.383,2.625,-0.320
2019-05-26-01:44:18.760809,0.294,-0.144,10.112,-7.600,-15.200,-7.600,-1.555,2.438,-0.227
2019-05-26-01:44:18.871133,0.280,-0.134,10.114,-7.500,-13.900,-7.200,-0.945,2.719,-0.125
2019-05-26-01:44:18.980919,0.301,-0.153,10.126,-6.400,-13.700,-7.400,-1.016,2.633,-0.273
2019-05-26-01:44:19.090994,0.290,-0.148,10.136,-7.400,-14.400,-8.400,-0.992,2.883,-0.164
2019-05-26-01:44:19.200689,0.290,-0.146,10.119,-7.600,-14.700,-7.200,-1.016,2.883,-0.141
2019-05-26-01:44:19.310354,0.316,-0.144,10.114,-9.300,-14.500,-8.300,-0.867,2.797,-0.078
2019-05-26-01:44:19.420242,0.294,-0.151,10.146,-7.600,-14.600,-6.900,-0.773,2.656,-0.328
2019-05-26-01:44:19.530272,0.292,-0.148,10.126,-6.800,-15.100,-7.000,-1.250,2.758,-0.320
2019-05-26-01:44:19.640164,0.285,-0.151,10.119,-6.500,-13.700,-7.200,-1.141,2.656,-0.070
2019-05-26-01:44:19.749889,0.297,-0.146,10.112,-7.200,-15.200,-6.600,-0.867,2.844,-0.211
2019-05-26-01:44:19.859509,0.285,-0.146,10.114,-7.700,-15.000,-8.600,-0.703,2.672,-0.234
2019-05-26-01:44:19.969379,0.292,-0.153,10.126,-7.700,-13.700,-6.900,-0.969,2.633,-0.102
2019-05-26-01:44:20.079284,0.301,-0.156,10.143,-7.900,-13.500,-7.900,-0.922,2.625,-0.070
2019-05-26-01:44:20.188886,0.285,-0.148,10.124,-8.100,-14.000,-7.600,-1.039,2.586,-0.180
2019-05-26-01:44:20.298848,0.290,-0.146,10.107,-7.700,-14.500,-6.900,-0.805,2.484,-0.117
2019-05-26-01:44:20.408836,0.287,-0.151,10.114,-7.600,-14.300,-8.300,-1.062,2.719,-0.148
2019-05-26-01:44:20.518813,0.285,-0.139,10.134,-8.300,-13.400,-5.700,-0.898,2.828,-0.125
2019-05-26-01:44:20.628555,0.287,-0.153,10.124,-7.700,-14.100,-7.000,-0.961,2.656,-0.125
2019-05-26-01:44:20.738614,0.299,-0.153,10.131,-7.800,-14.100,-6.500,-0.742,2.906,-0.188
2019-05-26-01:44:20.848275,0.285,-0.151,10.141,-7.200,-14.200,-7.300,-1.094,2.648,-0.117
2019-05-26-01:44:20.958272,0.311,-0.158,10.102,-8.600,-14.200,-5.500,-1.336,2.672,-0.055
2019-05-26-01:44:21.068147,0.268,-0.160,10.112,-7.600,-14.700,-7.000,-1.070,2.766,-0.125
2019-05-26-01:44:21.177815,0.297,-0.134,10.112,-6.500,-13.700,-7.900,-0.914,2.562,-0.070
2019-05-26-01:44:21.287430,0.278,-0.167,10.131,-7.400,-14.700,-6.700,-1.109,2.781,-0.094
2019-05-26-01:44:21.397154,0.292,-0.153,10.102,-6.800,-14.400,-7.400,-0.703,2.812,0.086
2019-05-26-01:44:21.507101,0.282,-0.148,10.126,-7.100,-14.100,-5.300,-1.070,2.750,0.109
2019-05-26-01:44:21.616839,0.282,-0.156,10.119,-7.600,-14.000,-5.900,-0.742,2.594,-0.227
2019-05-26-01:44:21.726532,0.285,-0.153,10.110,-6.800,-14.500,-7.400,-1.312,2.734,-0.359
2019-05-26-01:44:21.836911,0.280,-0.153,10.124,-7.200,-14.100,-6.700,-1.297,2.883,0.062
2019-05-26-01:44:21.946813,0.282,-0.165,10.126,-7.700,-15.000,-5.600,-1.023,2.695,-0.008
2019-05-26-01:44:22.056725,0.287,-0.163,10.117,-7.700,-13.700,-7.300,-0.992,2.727,0.055
2019-05-26-01:44:22.166434,0.290,-0.144,10.122,-7.100,-14.200,-5.300,-1.227,2.609,-0.102
2019-05-26-01:44:22.276135,0.294,-0.151,10.131,-7.400,-14.000,-6.300,-0.930,2.555,0.039
2019-05-26-01:44:22.385863,0.290,-0.153,10.117,-7.500,-13.600,-6.700,-0.828,2.898,0.016
2019-05-26-01:44:22.495602,0.290,-0.156,10.131,-6.300,-14.300,-6.500,-0.922,2.680,-0.250
2019-05-26-01:44:22.605357,0.285,-0.139,10.136,-6.800,-14.500,-7.000,-1.133,2.797,-0.250
2019-05-26-01:44:22.715305,0.287,-0.156,10.141,-7.100,-13.400,-6.800,-1.352,2.820,-0.102
2019-05-26-01:44:22.825335,0.282,-0.144,10.124,-6.600,-13.900,-7.000,-0.703,2.812,0.078
2019-05-26-01:44:22.935254,0.292,-0.148,10.119,-7.700,-14.300,-7.500,-1.016,2.969,-0.031
2019-05-26-01:44:23.045682,0.287,-0.160,10.134,-6.700,-15.900,-7.000,-0.680,2.562,-0.188
2019-05-26-01:44:23.155360,0.301,-0.153,10.136,-8.100,-14.000,-6.800,-1.086,2.820,-0.117
2019-05-26-01:44:23.264966,0.292,-0.156,10.138,-8.500,-14.000,-8.300,-0.797,2.742,-0.047
2019-05-26-01:44:23.374590,0.301,-0.158,10.110,-7.400,-14.300,-7.300,-1.016,2.703,0.016
2019-05-26-01:44:23.484265,0.297,-0.146,10.117,-7.200,-14.700,-7.100,-0.914,2.711,-0.070
2019-05-26-01:44:23.594230,0.287,-0.141,10.136,-6.800,-14.800,-7.300,-0.742,2.781,-0.070
2019-05-26-01:44:23.703944,0.299,-0.158,10.102,-7.400,-15.200,-6.900,-1.289,2.500,-0.094
2019-05-26-01:44:23.813590,0.301,-0.151,10.136,-7.500,-13.800,-6.600,-1.156,2.867,-0.047
2019-05-26-01:44:23.923562,0.282,-0.151,10.114,-7.100,-14.600,-6.500,-1.102,2.789,0.211
2019-05-26-01:44:24.033583,0.285,-0.167,10.112,-7.000,-14.300,-7.100,-0.852,2.695,-0.305
2019-05-26-01:44:24.143283,0.287,-0.151,10.122,-6.200,-14.200,-6.700,-0.539,2.586,0.133
2019-05-26-01:44:24.253199,0.273,-0.141,10.119,-7.600,-14.600,-5.900,-1.023,2.586,-0.406
2019-05-26-01:44:24.362929,0.285,-0.148,10.126,-7.500,-14.200,-8.300,-0.953,2.492,0.109
2019-05-26-01:44:24.472697,0.297,-0.160,10.124,-7.400,-13.500,-7.600,-0.891,2.867,-0.297
2019-05-26-01:44:24.582551,0.285,-0.156,10.112,-7.000,-15.000,-6.300,-1.336,2.625,-0.180
2019-05-26-01:44:24.692546,0.297,-0.151,10.134,-7.900,-14.200,-7.800,-0.648,2.570,-0.305
2019-05-26-01:44:24.802429,0.292,-0.148,10.122,-7.400,-13.600,-7.200,-1.258,2.844,-0.102
2019-05-26-01:44:24.912463,0.290,-0.156,10.136,-6.800,-15.000,-7.400,-1.047,2.828,-0.211
2019-05-26-01:44:25.022349,0.294,-0.158,10.134,-7.200,-14.300,-7.000,-0.844,2.820,-0.383
2019-05-26-01:44:25.132407,0.299,-0.153,10.126,-6.800,-13.700,-7.500,-1.047,2.703,0.062
2019-05-26-01:44:25.242225,0.290,-0.148,10.129,-6.800,-13.900,-7.300,-0.727,2.508,-0.320
2019-05-26-01:44:25.351843,0.292,-0.148,10.112,-7.000,-13.800,-6.300,-0.883,2.672,0.016
2019-05-26-01:44:25.461793,0.290,-0.160,10.129,-7.400,-13.700,-5.900,-0.867,2.781,-0.047
2019-05-26-01:44:25.571667,0.306,-0.153,10.122,-7.900,-14.000,-6.100,-1.148,2.664,0.102
2019-05-26-01:44:25.681449,0.282,-0.158,10.122,-6.500,-14.200,-7.300,-1.000,2.430,0.086
2019-05-26-01:44:25.791166,0.290,-0.141,10.138,-6.200,-14.300,-6.800,-1.047,2.695,-0.047
2019-05-26-01:44:25.902900,0.294,-0.158,10.107,-7.400,-15.000,-7.400,-1.258,2.516,0.156
2019-05-26-01:44:26.012721,0.292,-0.151,10.126,-7.100,-14.700,-7.400,-0.750,2.820,-0.188
2019-05-26-01:44:26.122383,0.285,-0.141,10.119,-7.800,-13.800,-6.500,-1.109,2.648,-0.055
2019-05-26-01:44:26.232053,0.285,-0.139,10.112,-6.300,-14.100,-8.100,-0.984,2.695,-0.117
2019-05-26-01:44:26.342103,0.285,-0.151,10.117,-7.100,-14.900,-6.700,-1.164,2.719,-0.188
2019-05-26-01:44:26.452029,0.292,-0.158,10.114,-7.400,-13.100,-8.300,-1.047,2.828,-0.203
2019-05-26-01:44:26.562025,0.299,-0.156,10.107,-7.200,-14.000,-8.000,-0.672,2.633,-0.188
2019-05-26-01:44:26.672121,0.278,-0.148,10.131,-6.800,-14.700,-6.000,-1.070,2.461,-0.180
2019-05-26-01:44:26.781955,0.292,-0.144,10.136,-7.900,-15.300,-5.500,-0.734,2.797,0.031
2019-05-26-01:44:26.891753,0.294,-0.156,10.143,-6.200,-15.100,-7.300,-1.055,2.688,0.125
2019-05-26-01:44:27.001600,0.287,-0.153,10.122,-7.400,-13.500,-6.700,-1.148,2.641,0.062
2019-05-26-01:44:27.111283,0.290,-0.160,10.122,-7.100,-14.100,-6.200,-0.914,2.828,-0.188
2019-05-26-01:44:27.220893,0.292,-0.146,10.131,-6.700,-14.400,-6.100,-1.188,2.711,-0.102
2019-05-26-01:44:27.330529,0.285,-0.165,10.126,-7.800,-14.800,-6.100,-1.188,2.594,-0.070
2019-05-26-01:44:27.440285,0.266,-0.132,10.119,-7.000,-14.700,-6.200,-0.992,2.891,-0.227
2019-05-26-01:44:27.550447,0.297,-0.165,10.102,-7.500,-14.200,-7.900,-1.023,2.820,-0.344
2019-05-26-01:44:27.660206,0.290,-0.153,10.110,-7.100,-13.800,-5.100,-1.352,2.742,-0.305
2019-05-26-01:44:27.769953,0.287,-0.158,10.126,-7.200,-13.900,-5.800,-1.023,2.844,-0.180
2019-05-26-01:44:27.879978,0.294,-0.151,10.119,-6.700,-14.000,-7.000,-1.500,2.625,-0.070
2019-05-26-01:44:27.990187,0.301,-0.139,10.122,-7.100,-13.600,-7.600,-1.016,2.758,-0.047
2019-05-26-01:44:28.099977,0.282,-0.148,10.138,-7.600,-14.500,-6.500,-0.672,2.852,-0.148
2019-05-26-01:44:28.209632,0.294,-0.144,10.141,-7.200,-15.000,-7.400,-1.430,3.000,-0.227
2019-05-26-01:44:28.319291,0.278,-0.151,10.124,-7.200,-14.600,-6.500,-1.023,2.711,-0.117
2019-05-26-01:44:28.429175,0.292,-0.141,10.122,-7.000,-13.800,-7.600,-1.234,2.680,0.008
2019-05-26-01:44:28.539033,0.280,-0.148,10.114,-6.500,-14.700,-5.400,-1.375,2.805,-0.047
2019-05-26-01:44:28.648897,0.282,-0.146,10.134,-7.800,-15.100,-6.900,-0.867,2.766,-0.141
2019-05-26-01:44:28.758993,0.280,-0.163,10.126,-6.000,-14.500,-6.600,-1.266,2.797,-0.414
2019-05-26-01:44:28.868747,0.311,-0.151,10.126,-7.500,-15.000,-7.100,-0.703,2.711,-0.383
2019-05-26-01:44:28.978770,0.278,-0.163,10.105,-6.600,-14.600,-6.300,-1.016,2.734,-0.102
2019-05-26-01:44:29.088830,0.285,-0.139,10.114,-6.900,-14.200,-6.400,-1.031,2.562,0.078
2019-05-26-01:44:29.198751,0.282,-0.153,10.117,-7.200,-14.700,-6.500,-1.273,2.797,0.055
2019-05-26-01:44:29.308490,0.290,-0.146,10.102,-7.100,-13.900,-6.000,-0.844,2.609,-0.148
2019-05-26-01:44:29.418385,0.285,-0.146,10.126,-6.800,-13.900,-6.600,-1.312,2.703,0.039
2019-05-26-01:44:29.528192,0.287,-0.156,10.114,-7.000,-13.700,-7.100,-1.133,2.547,-0.125
2019-05-26-01:44:29.637844,0.280,-0.146,10.136,-6.900,-13.800,-5.400,-1.039,2.734,-0.281
2019-05-26-01:44:29.747482,0.294,-0.148,10.110,-6.600,-14.500,-5.800,-1.023,2.578,0.016
2019-05-26-01:44:29.857714,0.299,-0.146,10.124,-6.400,-13.800,-8.100,-1.133,2.852,-0.141
2019-05-26-01:44:29.967488,0.301,-0.144,10.122,-7.300,-15.000,-7.100,-1.180,2.625,-0.180
2019-05-26-01:44:30.077302,0.285,-0.144,10.136,-7.000,-14.500,-6.300,-1.117,2.648,0.031
2019-05-26-01:44:30.186893,0.287,-0.144,10.141,-7.000,-15.000,-6.900,-1.047,2.852,-0.258
2019-05-26-01:44:30.296872,0.266,-0.156,10.134,-7.300,-14.400,-7.100,-0.969,2.742,-0.031
2019-05-26-01:44:30.406734,0.316,-0.158,10.134,-7.300,-14.800,-6.800,-1.070,2.906,-0.141
2019-05-26-01:44:30.516841,0.287,-0.148,10.129,-7.200,-14.900,-5.700,-0.992,2.586,-0.281
2019-05-26-01:44:30.626768,0.278,-0.148,10.117,-7.200,-14.300,-5.300,-1.164,2.805,-0.117
2019-05-26-01:44:30.736472,0.301,-0.148,10.131,-6.700,-13.400,-6.600,-1.016,2.500,-0.125
2019-05-26-01:44:30.846208,0.287,-0.148,10.131,-7.800,-14.800,-6.700,-0.727,2.719,-0.078
2019-05-26-01:44:30.956043,0.294,-0.139,10.122,-7.400,-15.500,-7.200,-1.266,2.844,-0.125
2019-05-26-01:44:31.066347,0.280,-0.151,10.124,-7.500,-13.200,-6.200,-0.742,2.484,-0.211
2019-05-26-01:44:31.176105,0.285,-0.144,10.112,-7.300,-14.400,-5.800,-1.430,2.734,-0.281
2019-05-26-01:44:31.285798,0.280,-0.158,10.129,-6.700,-14.800,-6.600,-1.203,2.695,-0.070
2019-05-26-01:44:31.395497,0.287,-0.129,10.124,-6.100,-14.400,-6.000,-1.023,2.547,-0.250
2019-05-26-01:44:31.505459,0.301,-0.160,10.112,-7.400,-14.200,-6.300,-0.922,2.758,-0.023
2019-05-26-01:44:31.615228,0.282,-0.163,10.124,-7.600,-14.800,-5.900,-0.961,2.375,-0.148
2019-05-26-01:44:31.724845,0.278,-0.151,10.117,-6.800,-14.100,-5.900,-0.992,2.625,-0.148
2019-05-26-01:44:31.834579,0.299,-0.146,10.114,-6.900,-12.800,-7.300,-1.297,2.664,0.156
2019-05-26-01:44:31.944329,0.282,-0.156,10.143,-8.100,-14.800,-4.100,-0.938,2.633,-0.211
2019-05-26-01:44:32.054154,0.285,-0.148,10.124,-7.400,-14.200,-7.500,-1.008,2.844,-0.094
2019-05-26-01:44:32.163931,0.273,-0.144,10.124,-7.000,-13.800,-6.300,-1.227,2.695,-0.055
2019-05-26-01:44:32.273981,0.280,-0.148,10.134,-7.800,-13.900,-6.100,-0.656,2.773,0.086
2019-05-26-01:44:32.383813,0.280,-0.148,10.122,-7.100,-14.500,-5.800,-1.195,2.625,0.016
2019-05-26-01:44:32.493524,0.290,-0.156,10.129,-7.200,-14.200,-7.000,-0.938,2.648,-0.148
2019-05-26-01:44:32.603357,0.297,-0.132,10.105,-7.300,-13.900,-6.700,-1.016,2.680,-0.164
2019-05-26-01:44:32.713375,0.290,-0.160,10.119,-5.800,-14.800,-6.100,-1.148,2.711,0.031
2019-05-26-01:44:32.823314,0.280,-0.139,10.126,-6.600,-14.400,-8.100,-0.984,2.656,-0.164
2019-05-26-01:44:32.933178,0.285,-0.156,10.126,-6.200,-13.900,-7.000,-0.719,2.711,-0.070
2019-05-26-01:44:33.043130,0.294,-0.153,10.122,-6.900,-14.400,-6.400,-1.156,2.758,-0.234
2019-05-26-01:44:33.152760,0.292,-0.158,10.117,-5.700,-13.900,-5.900,-0.914,2.648,-0.055
2019-05-26-01:44:33.262336,0.275,-0.153,10.131,-7.100,-14.300,-7.900,-1.258,2.430,0.031
2019-05-26-01:44:33.371976,0.299,-0.158,10.124,-7.000,-14.100,-6.400,-1.109,2.883,-0.125
2019-05-26-01:44:33.482063,0.287,-0.158,10.102,-6.900,-13.500,-6.500,-1.180,2.711,-0.258
2019-05-26-01:44:33.592069,0.285,-0.158,10.110,-6.700,-14.400,-6.300,-0.867,2.758,-0.031
2019-05-26-01:44:33.701800,0.292,-0.163,10.131,-7.200,-14.600,-7.000,-1.211,2.883,0.188
2019-05-26-01:44:33.811469,0.306,-0.144,10.131,-6.500,-14.200,-6.400,-1.094,2.766,-0.117
2019-05-26-01:44:33.921437,0.292,-0.148,10.124,-7.700,-12.900,-6.700,-1.258,2.961,0.016
2019-05-26-01:44:34.031222,0.287,-0.139,10.134,-7.200,-14.500,-5.800,-1.133,2.508,-0.055
2019-05-26-01:44:34.140879,0.280,-0.156,10.122,-5.900,-15.100,-5.600,-1.070,2.648,-0.094
2019-05-26-01:44:34.250472,0.278,-0.141,10.124,-6.400,-13.300,-7.000,-0.922,2.625,-0.102
2019-05-26-01:44:34.362411,0.287,-0.148,10.124,-7.600,-13.500,-6.900,-1.047,2.750,0.062
2019-05-26-01:44:34.472319,0.285,-0.165,10.141,-6.600,-13.700,-6.700,-1.078,2.727,0.195
2019-05-26-01:44:34.582327,0.285,-0.139,10.110,-7.200,-14.400,-6.300,-1.383,2.633,-0.031
2019-05-26-01:44:34.692364,0.280,-0.146,10.131,-7.000,-13.800,-6.600,-0.656,2.867,-0.070
2019-05-26-01:44:34.802182,0.301,-0.151,10.126,-7.600,-13.300,-4.500,-0.984,2.844,-0.141
2019-05-26-01:44:34.912077,0.287,-0.153,10.126,-7.200,-14.800,-6.800,-0.898,2.852,-0.125
2019-05-26-01:44:35.022032,0.287,-0.151,10.107,-7.800,-13.800,-6.600,-1.141,2.680,-0.055
2019-05-26-01:44:35.132159,0.297,-0.160,10.117,-7.900,-14.200,-8.100,-0.852,2.742,-0.148
2019-05-26-01:44:35.241930,0.285,-0.160,10.095,-7.000,-14.100,-7.500,-0.727,2.617,0.062
2019-05-26-01:44:35.351537,0.287,-0.160,10.143,-7.400,-14.700,-7.100,-1.141,2.648,-0.148
2019-05-26-01:44:35.461227,0.297,-0.148,10.119,-6.600,-14.000,-7.100,-0.984,2.766,-0.180
2019-05-26-01:44:35.571029,0.290,-0.158,10.100,-7.100,-12.800,-7.700,-1.086,2.852,-0.227
2019-05-26-01:44:35.680729,0.292,-0.151,10.138,-7.900,-13.700,-7.100,-1.359,2.867,-0.094
2019-05-26-01:44:35.790518,0.292,-0.148,10.126,-7.100,-14.100,-7.000,-1.039,2.625,-0.180
2019-05-26-01:44:35.900540,0.292,-0.141,10.112,-7.400,-13.800,-5.100,-1.234,2.680,-0.094
2019-05-26-01:44:36.010403,0.297,-0.156,10.119,-7.900,-14.500,-6.600,-1.180,2.781,0.008
2019-05-26-01:44:36.120086,0.297,-0.158,10.112,-7.000,-14.700,-5.900,-1.273,2.688,0.055
2019-05-26-01:44:36.229714,0.285,-0.160,10.126,-6.900,-13.900,-6.000,-0.898,2.711,-0.188
2019-05-26-01:44:36.339706,0.301,-0.156,10.117,-7.000,-14.300,-5.900,-1.109,2.781,-0.188
2019-05-26-01:44:36.449501,0.287,-0.156,10.126,-7.500,-13.500,-5.900,-1.023,2.695,-0.023
2019-05-26-01:44:36.559330,0.287,-0.151,10.138,-6.600,-13.800,-6.800,-0.914,2.742,-0.094
2019-05-26-01:44:36.668988,0.280,-0.141,10.131,-6.800,-14.000,-6.500,-1.023,2.797,-0.117
2019-05-26-01:44:36.778743,0.292,-0.158,10.124,-6.500,-14.700,-7.200,-1.117,2.773,0.039
2019-05-26-01:44:36.888643,0.285,-0.148,10.124,-6.700,-14.500,-6.700,-0.984,2.844,-0.094
2019-05-26-01:44:36.998556,0.301,-0.144,10.119,-7.700,-14.400,-7.500,-1.023,2.758,0.102
2019-05-26-01:44:37.108714,0.278,-0.156,10.122,-8.200,-13.800,-5.800,-1.016,2.961,0.109
2019-05-26-01:44:37.218470,0.287,-0.160,10.131,-7.700,-14.500,-7.000,-1.031,2.672,0.016
2019-05-26-01:44:37.328096,0.290,-0.139,10.126,-7.000,-13.300,-6.300,-0.711,2.789,0.039
2019-05-26-01:44:37.437764,0.299,-0.141,10.126,-7.700,-14.500,-6.800,-0.828,2.477,0.062
2019-05-26-01:44:37.547770,-1.096,-0.536,-1.955,-8.600,-13.900,-7.700,-9.930,9.250,0.383
2019-05-26-01:44:37.657435,1.744,0.936,11.639,-8.700,-15.500,-6.700,1.219,2.039,0.938
2019-05-26-01:44:37.767159,0.445,-0.172,10.002,-7.700,-13.600,-6.200,-1.500,2.500,-0.281
2019-05-26-01:44:37.877069,0.208,-0.146,10.153,-7.500,-14.200,-5.700,-0.477,2.695,-0.023
2019-05-26-01:44:37.986867,0.306,-0.220,10.129,-7.800,-14.200,-6.000,-0.961,2.656,-0.211
2019-05-26-01:44:38.096819,0.258,-0.132,10.122,-7.200,-14.800,-7.200,-0.781,2.883,-0.164
2019-05-26-01:44:38.206487,0.347,-0.146,10.134,-7.800,-15.700,-6.500,-0.648,2.758,0.156
2019-05-26-01:44:38.316538,0.290,-0.163,10.141,-6.600,-13.500,-6.500,-0.922,2.414,0.148
2019-05-26-01:44:38.426416,0.292,-0.139,10.136,-6.900,-14.300,-6.600,-0.805,2.500,-0.102
2019-05-26-01:44:38.536353,0.301,-0.141,10.143,-6.800,-14.000,-4.700,-0.906,2.773,0.148
2019-05-26-01:44:38.646094,0.301,-0.167,10.117,-7.000,-14.100,-6.500,-1.188,2.562,-0.102
2019-05-26-01:44:38.756062,0.290,-0.156,10.119,-6.300,-13.900,-5.000,-1.258,2.734,-0.102
2019-05-26-01:44:38.865788,0.311,-0.167,10.122,-6.800,-14.600,-7.300,-0.984,2.523,-0.250
2019-05-26-01:44:38.975681,0.297,-0.141,10.122,-6.800,-14.500,-5.600,-0.789,2.391,0.031
2019-05-26-01:44:39.085536,0.290,-0.151,10.138,-7.500,-14.200,-5.900,-0.906,2.602,0.055
2019-05-26-01:44:39.195140,0.273,-0.148,10.124,-7.300,-14.300,-5.600,-0.914,2.477,-0.094
2019-05-26-01:44:39.304729,0.304,-0.151,10.122,-7.700,-13.600,-6.000,-1.117,2.797,0.016
2019-05-26-01:44:39.414482,0.290,-0.160,10.119,-6.400,-14.200,-6.200,-0.820,2.648,-0.055
2019-05-26-01:44:39.524455,0.290,-0.156,10.126,-7.500,-13.900,-6.500,-1.008,2.594,-0.203
2019-05-26-01:44:39.634132,0.297,-0.158,10.119,-8.100,-13.500,-7.300,-0.992,2.711,-0.102
2019-05-26-01:44:39.744005,0.304,-0.151,10.126,-6.800,-13.900,-4.500,-0.648,2.539,-0.273
2019-05-26-01:44:39.854067,0.294,-0.156,10.112,-8.200,-15.000,-5.900,-0.828,2.672,-0.008
2019-05-26-01:44:39.964123,0.290,-0.160,10.119,-6.600,-14.400,-5.400,-0.852,2.695,-0.180
2019-05-26-01:44:40.074456,0.294,-0.167,10.117,-7.100,-15.200,-5.800,-1.227,2.828,-0.281
2019-05-26-01:44:40.184320,0.304,-0.160,10.124,-7.200,-13.900,-5.100,-0.961,2.648,-0.328
2019-05-26-01:44:40.294033,0.292,-0.160,10.138,-6.400,-14.800,-5.300,-1.234,2.719,-0.227
2019-05-26-01:44:40.403762,0.287,-0.170,10.114,-7.000,-15.300,-6.100,-1.016,2.562,-0.406
2019-05-26-01:44:40.513457,0.290,-0.158,10.122,-6.600,-14.900,-6.200,-0.547,2.773,0.148
2019-05-26-01:44:40.623109,0.290,-0.156,10.131,-7.200,-14.200,-6.300,-1.070,2.695,-0.164
2019-05-26-01:44:40.732998,0.306,-0.160,10.126,-7.300,-14.600,-6.400,-0.852,2.742,-0.117
2019-05-26-01:44:40.842692,0.301,-0.167,10.112,-7.000,-13.600,-4.800,-0.938,2.828,-0.070
2019-05-26-01:44:40.952373,0.294,-0.160,10.117,-7.900,-13.700,-6.100,-1.266,2.453,-0.047
2019-05-26-01:44:41.062229,0.280,-0.160,10.119,-6.600,-14.400,-7.000,-1.086,2.484,-0.164
2019-05-26-01:44:41.172340,0.270,-0.151,10.136,-7.400,-14.200,-5.800,-1.406,2.719,-0.047
2019-05-26-01:44:41.282021,0.301,-0.160,10.122,-7.300,-13.700,-5.200,-0.875,2.688,0.031
2019-05-26-01:44:41.391613,0.304,-0.141,10.138,-7.500,-13.600,-6.800,-1.305,2.867,-0.305
2019-05-26-01:44:41.501229,0.299,-0.146,10.129,-7.500,-14.800,-6.000,-1.117,2.438,-0.023
2019-05-26-01:44:41.610904,0.287,-0.144,10.134,-7.400,-15.000,-5.900,-0.875,2.656,-0.047
2019-05-26-01:44:41.720450,0.309,-0.153,10.134,-6.500,-14.600,-7.100,-1.094,2.883,-0.078
2019-05-26-01:44:41.830014,0.306,-0.156,10.110,-7.700,-14.300,-5.000,-0.898,2.734,-0.102
2019-05-26-01:44:41.939894,0.301,-0.163,10.119,-5.800,-14.600,-7.600,-1.281,2.711,-0.344
2019-05-26-01:44:42.049646,0.297,-0.165,10.146,-7.400,-14.200,-6.300,-1.023,2.891,-0.148
2019-05-26-01:44:42.159239,0.297,-0.144,10.119,-8.000,-14.000,-4.300,-1.039,2.562,-0.164
2019-05-26-01:44:42.268773,0.309,-0.160,10.119,-7.800,-14.400,-5.500,-0.969,2.883,-0.258
2019-05-26-01:44:42.378807,0.292,-0.148,10.134,-8.100,-15.300,-6.400,-1.102,2.883,0.031
2019-05-26-01:44:42.488591,0.282,-0.167,10.129,-7.200,-14.400,-5.800,-0.992,2.648,-0.008
2019-05-26-01:44:42.598479,0.299,-0.156,10.119,-6.700,-13.600,-5.200,-0.820,2.648,-0.203
2019-05-26-01:44:42.710027,0.294,-0.148,10.119,-7.400,-13.500,-6.200,-1.180,2.719,-0.227
2019-05-26-01:44:42.819698,0.297,-0.156,10.112,-7.600,-14.200,-4.100,-0.898,2.742,-0.406
2019-05-26-01:44:42.929620,0.297,-0.158,10.136,-7.200,-15.300,-7.100,-0.969,2.805,-0.117
2019-05-26-01:44:43.039404,0.280,-0.136,10.102,-7.000,-13.800,-5.600,-0.961,2.734,-0.047
2019-05-26-01:44:43.149493,0.285,-0.151,10.119,-7.700,-13.500,-6.100,-1.086,2.805,-0.188
2019-05-26-01:44:43.259086,0.287,-0.151,10.126,-6.900,-13.800,-4.800,-0.953,2.516,0.016
2019-05-26-01:44:43.368671,0.292,-0.148,10.119,-8.500,-14.200,-5.400,-1.523,2.953,-0.008
2019-05-26-01:44:43.478360,0.287,-0.151,10.134,-8.500,-15.200,-7.000,-0.656,2.648,-0.281
2019-05-26-01:44:43.588425,0.280,-0.163,10.134,-7.800,-14.500,-5.300,-1.133,2.742,-0.281
2019-05-26-01:44:43.698074,0.292,-0.158,10.129,-7.200,-13.300,-5.800,-1.328,2.609,-0.234
2019-05-26-01:44:43.807687,0.275,-0.160,10.124,-7.600,-14.700,-6.200,-1.281,2.719,-0.250
2019-05-26-01:44:43.919077,0.287,-0.158,10.126,-6.900,-15.000,-5.500,-1.047,2.602,0.102
2019-05-26-01:44:44.028859,0.299,-0.148,10.131,-7.900,-14.500,-4.800,-0.938,2.914,-0.070
2019-05-26-01:44:44.138560,0.299,-0.153,10.112,-7.400,-14.400,-5.800,-0.773,3.055,-0.102
2019-05-26-01:44:44.248113,0.294,-0.158,10.126,-7.700,-14.600,-5.600,-0.734,2.727,0.039
2019-05-26-01:44:44.358070,0.297,-0.153,10.129,-8.000,-14.000,-6.600,-1.336,2.867,-0.320
2019-05-26-01:44:44.467840,0.285,-0.163,10.119,-6.900,-14.200,-6.200,-0.805,2.805,-0.070
2019-05-26-01:44:44.577630,0.306,-0.160,10.122,-6.800,-14.300,-6.500,-0.672,2.992,-0.141
2019-05-26-01:44:44.693628,0.294,-0.148,10.129,-8.500,-13.500,-6.300,-1.211,2.641,0.016
2019-05-26-01:44:44.803292,0.301,-0.146,10.129,-6.700,-13.800,-6.300,-0.938,2.766,-0.188
2019-05-26-01:44:44.914088,0.294,-0.163,10.124,-7.900,-13.700,-5.900,-1.086,2.977,-0.117
2019-05-26-01:44:45.024203,0.301,-0.153,10.126,-6.600,-14.300,-6.200,-1.086,2.695,-0.078
2019-05-26-01:44:45.133972,0.306,-0.148,10.114,-8.400,-13.800,-6.100,-1.117,2.633,-0.117
2019-05-26-01:44:45.243547,0.292,-0.158,10.143,-7.700,-13.500,-6.400,-1.070,2.508,-0.148
2019-05-26-01:44:45.353047,0.294,-0.148,10.134,-7.500,-14.100,-6.400,-0.898,2.852,-0.188
2019-05-26-01:44:45.462678,0.287,-0.146,10.131,-7.200,-14.500,-8.200,-0.805,2.695,-0.188
2019-05-26-01:44:45.572655,0.299,-0.153,10.136,-8.100,-14.100,-7.800,-1.047,2.656,-0.227
2019-05-26-01:44:45.682305,0.282,-0.156,10.105,-7.200,-14.000,-6.500,-0.969,2.508,-0.047
2019-05-26-01:44:45.791915,0.278,-0.153,10.138,-7.500,-14.500,-6.200,-0.891,2.625,-0.023
2019-05-26-01:44:45.901943,0.306,-0.167,10.110,-7.400,-14.000,-6.600,-1.141,2.570,-0.047
2019-05-26-01:44:46.011641,0.304,-0.148,10.134,-6.400,-13.900,-6.100,-1.133,2.719,-0.102
2019-05-26-01:44:46.121312,0.285,-0.163,10.131,-8.100,-14.500,-5.000,-1.109,2.820,-0.125
2019-05-26-01:44:46.230864,0.299,-0.153,10.122,-7.400,-14.000,-4.700,-1.008,2.805,-0.078
2019-05-26-01:44:46.340489,0.294,-0.160,10.131,-7.800,-14.000,-6.900,-1.188,2.672,0.031
2019-05-26-01:44:46.450233,0.297,-0.148,10.117,-7.400,-14.300,-6.000,-1.023,2.625,-0.055
2019-05-26-01:44:46.560017,0.304,-0.158,10.158,-7.000,-13.800,-6.200,-1.234,2.523,-0.031
2019-05-26-01:44:46.669600,0.290,-0.153,10.119,-7.400,-14.300,-5.500,-1.047,2.719,-0.234
2019-05-26-01:44:46.779574,0.282,-0.146,10.100,-6.400,-13.300,-5.300,-1.328,2.867,-0.047
2019-05-26-01:44:46.889170,0.287,-0.158,10.119,-7.200,-14.600,-6.000,-0.781,2.805,-0.070
2019-05-26-01:44:46.998892,0.280,-0.146,10.136,-7.200,-14.700,-7.100,-1.117,2.547,-0.180
2019-05-26-01:44:47.108861,0.299,-0.151,10.129,-8.000,-13.200,-6.500,-0.828,2.555,0.016
2019-05-26-01:44:47.218575,0.287,-0.151,10.122,-7.300,-14.300,-5.000,-0.844,2.562,-0.180
2019-05-26-01:44:47.328105,0.301,-0.153,10.117,-8.200,-13.500,-6.000,-0.773,2.852,-0.023
2019-05-26-01:44:47.437663,0.306,-0.151,10.131,-7.000,-14.500,-6.100,-1.281,2.891,-0.250
2019-05-26-01:44:47.547466,0.285,-0.158,10.141,-7.700,-14.700,-5.800,-1.156,2.805,-0.188
2019-05-26-01:44:47.657052,0.309,-0.139,10.126,-6.400,-14.000,-6.800,-1.039,2.422,-0.164
2019-05-26-01:44:47.766740,0.282,-0.163,10.129,-6.700,-13.900,-6.500,-0.922,2.906,-0.297
2019-05-26-01:44:47.876564,0.290,-0.160,10.110,-7.600,-14.400,-6.500,-1.094,2.586,0.008
2019-05-26-01:44:47.986714,0.285,-0.146,10.141,-6.900,-14.300,-5.100,-0.977,2.477,0.102
2019-05-26-01:44:48.096472,0.290,-0.153,10.105,-7.600,-14.400,-6.600,-0.703,2.648,-0.070
2019-05-26-01:44:48.206304,0.294,-0.165,10.117,-7.300,-14.400,-4.700,-0.828,2.680,-0.031
2019-05-26-01:44:48.316299,0.306,-0.175,10.126,-7.000,-13.600,-6.800,-0.930,2.727,0.031
2019-05-26-01:44:48.426112,0.282,-0.156,10.126,-7.800,-13.700,-6.600,-0.828,2.820,-0.141
2019-05-26-01:44:48.535945,0.301,-0.160,10.110,-7.200,-13.900,-5.000,-1.023,2.758,-0.141
2019-05-26-01:44:48.645626,0.301,-0.160,10.117,-6.600,-13.500,-6.800,-1.430,2.820,-0.047
2019-05-26-01:44:48.755230,0.299,-0.148,10.129,-6.900,-13.700,-6.100,-0.922,2.656,-0.391
2019-05-26-01:44:48.864775,0.290,-0.148,10.114,-6.800,-14.300,-5.700,-0.992,2.695,-0.031
2019-05-26-01:44:48.974321,0.306,-0.156,10.114,-7.400,-13.400,-6.600,-1.188,2.484,-0.203
2019-05-26-01:44:49.084094,0.297,-0.151,10.131,-8.000,-14.300,-6.500,-1.023,2.586,-0.023
2019-05-26-01:44:49.194112,0.297,-0.170,10.102,-7.300,-13.800,-5.900,-0.961,2.852,-0.297
2019-05-26-01:44:49.303788,0.290,-0.156,10.138,-6.700,-14.400,-5.700,-1.289,2.695,-0.078
2019-05-26-01:44:49.413437,0.306,-0.146,10.131,-6.600,-14.000,-6.000,-0.992,2.938,-0.141
2019-05-26-01:44:49.523433,0.285,-0.148,10.124,-8.000,-13.900,-5.100,-0.922,2.797,-0.094
2019-05-26-01:44:49.633131,0.294,-0.156,10.124,-6.700,-13.700,-7.600,-1.289,2.742,-0.180
2019-05-26-01:44:49.742733,0.294,-0.146,10.124,-7.300,-13.300,-6.100,-0.633,2.883,-0.234
2019-05-26-01:44:49.852557,0.304,-0.160,10.122,-7.700,-14.300,-6.600,-0.922,2.867,-0.188
2019-05-26-01:44:49.962352,0.282,-0.160,10.110,-7.800,-14.600,-5.900,-1.242,2.703,0.078
2019-05-26-01:44:50.072210,0.297,-0.156,10.131,-6.900,-14.100,-6.400,-0.500,2.367,-0.023
2019-05-26-01:44:50.181820,0.292,-0.146,10.134,-7.500,-13.300,-4.200,-1.234,2.711,0.016
2019-05-26-01:44:50.291349,0.285,-0.158,10.136,-7.300,-14.200,-4.100,-0.859,2.773,0.086
2019-05-26-01:44:50.401289,0.299,-0.151,10.131,-7.300,-13.500,-5.200,-0.812,3.016,0.078
2019-05-26-01:44:50.510971,0.290,-0.158,10.112,-6.400,-13.400,-6.000,-0.766,2.758,-0.141
2019-05-26-01:44:50.620615,0.285,-0.167,10.112,-6.000,-13.700,-5.100,-1.039,2.766,-0.180
2019-05-26-01:44:50.730614,0.285,-0.148,10.095,-7.100,-14.100,-7.800,-1.453,2.711,-0.117
2019-05-26-01:44:50.840407,0.290,-0.160,10.122,-6.900,-13.900,-6.100,-0.891,2.500,-0.227
2019-05-26-01:44:50.950049,0.287,-0.153,10.114,-7.300,-13.400,-6.500,-0.969,2.672,0.188
2019-05-26-01:44:51.059780,0.301,-0.160,10.146,-7.400,-14.100,-5.900,-0.969,2.672,-0.008
2019-05-26-01:44:51.179307,0.285,-0.160,10.126,-7.500,-14.400,-5.800,-1.227,2.758,-0.273
2019-05-26-01:44:51.289277,0.287,-0.163,10.136,-7.000,-14.500,-4.900,-1.008,2.797,-0.078
2019-05-26-01:44:51.398973,0.292,-0.146,10.131,-7.500,-14.600,-5.600,-0.938,2.656,-0.125
2019-05-26-01:44:51.509218,0.304,-0.158,10.134,-6.400,-13.700,-6.900,-1.031,2.820,0.039
2019-05-26-01:44:51.618965,0.306,-0.144,10.126,-7.200,-14.800,-6.300,-0.945,2.547,-0.055
2019-05-26-01:44:51.728623,0.297,-0.156,10.122,-7.400,-14.300,-4.800,-1.242,2.812,0.156
2019-05-26-01:44:51.838249,0.282,-0.146,10.110,-7.400,-13.600,-4.100,-1.086,2.820,-0.070
2019-05-26-01:44:51.948177,0.292,-0.153,10.117,-7.400,-13.800,-5.700,-0.938,2.883,0.008
2019-05-26-01:44:52.057968,0.282,-0.151,10.131,-5.800,-13.000,-6.800,-0.703,2.672,-0.055
2019-05-26-01:44:52.167566,0.287,-0.151,10.131,-7.100,-14.200,-5.300,-1.047,2.680,-0.180
2019-05-26-01:44:52.277154,0.292,-0.163,10.138,-7.100,-12.900,-6.300,-1.336,2.648,-0.055
2019-05-26-01:44:52.386821,0.287,-0.141,10.131,-7.200,-13.500,-6.700,-0.586,2.797,-0.125
2019-05-26-01:44:52.496489,0.297,-0.153,10.102,-6.800,-14.000,-5.000,-0.852,2.680,-0.094
2019-05-26-01:44:52.606342,0.292,-0.153,10.122,-7.100,-15.300,-5.900,-0.992,2.875,0.375
2019-05-26-01:44:52.716363,0.297,-0.160,10.110,-6.900,-14.700,-5.700,-0.680,2.656,-0.148
2019-05-26-01:44:52.826151,0.282,-0.153,10.112,-8.000,-13.900,-5.500,-1.094,2.758,-0.094
2019-05-26-01:44:52.936085,0.297,-0.158,10.129,-7.100,-15.500,-6.500,-0.852,2.758,0.133
2019-05-26-01:44:53.046077,0.301,-0.151,10.112,-7.700,-15.200,-6.200,-1.047,2.641,0.016
2019-05-26-01:44:53.156150,0.297,-0.153,10.141,-6.900,-14.300,-6.900,-1.008,2.711,-0.148
2019-05-26-01:44:53.265879,0.290,-0.158,10.117,-8.100,-13.900,-6.400,-0.750,2.844,-0.102
2019-05-26-01:44:53.375557,0.309,-0.148,10.129,-7.100,-13.400,-5.500,-0.359,2.570,-0.211
2019-05-26-01:44:53.485218,0.297,-0.144,10.117,-7.900,-14.300,-7.100,-1.109,2.672,-0.180
2019-05-26-01:44:53.594993,0.299,-0.160,10.114,-7.200,-15.100,-7.200,-0.852,2.719,-0.094
2019-05-26-01:44:53.704598,0.290,-0.153,10.114,-6.800,-13.400,-5.600,-0.977,2.625,0.062
2019-05-26-01:44:53.814194,0.297,-0.146,10.119,-6.800,-14.100,-4.600,-1.156,2.680,-0.250
2019-05-26-01:44:53.924127,0.299,-0.148,10.112,-7.000,-13.900,-5.800,-1.453,2.781,-0.008
2019-05-26-01:44:54.033992,0.287,-0.165,10.129,-7.700,-13.700,-7.100,-0.992,2.648,0.102
2019-05-26-01:44:54.143614,0.294,-0.158,10.122,-8.100,-14.200,-5.700,-0.820,2.930,-0.305
2019-05-26-01:44:54.253167,0.306,-0.160,10.114,-8.100,-14.500,-6.400,-0.648,2.805,-0.367
2019-05-26-01:44:54.363065,0.292,-0.167,10.129,-7.700,-13.700,-4.900,-1.375,2.648,-0.164
2019-05-26-01:44:54.472800,0.306,-0.163,10.134,-8.700,-14.200,-4.400,-0.969,2.828,-0.234
2019-05-26-01:44:54.582643,0.280,-0.167,10.126,-8.500,-14.400,-4.900,-1.250,2.648,-0.094
2019-05-26-01:44:54.692275,0.287,-0.148,10.112,-7.000,-13.600,-5.200,-0.961,2.844,0.008
2019-05-26-01:44:54.801837,0.290,-0.158,10.110,-7.500,-14.200,-4.200,-0.984,2.695,-0.148
2019-05-26-01:44:54.911384,0.292,-0.156,10.136,-7.500,-14.300,-6.400,-0.945,2.781,-0.211
2019-05-26-01:44:55.021238,0.297,-0.160,10.134,-7.500,-14.400,-7.200,-1.195,3.141,-0.023
2019-05-26-01:44:55.131171,0.297,-0.163,10.093,-8.400,-14.300,-6.200,-1.141,2.562,0.102
2019-05-26-01:44:55.240814,0.292,-0.172,10.129,-7.500,-13.700,-5.900,-0.938,2.547,-0.188
2019-05-26-01:44:55.350444,0.294,-0.153,10.131,-7.600,-14.700,-5.900,-0.812,2.758,-0.141
2019-05-26-01:44:55.460259,0.299,-0.153,10.124,-7.800,-14.200,-5.800,-0.945,2.625,-0.047
2019-05-26-01:44:55.570334,0.301,-0.158,10.136,-7.200,-14.500,-7.200,-0.992,2.562,-0.188
2019-05-26-01:44:55.679936,0.290,-0.158,10.117,-7.000,-14.500,-6.400,-1.203,2.477,-0.117
2019-05-26-01:44:55.789541,0.297,-0.153,10.091,-7.300,-13.800,-6.500,-1.352,2.609,-0.023
2019-05-26-01:44:55.899090,0.297,-0.146,10.114,-7.400,-14.100,-7.500,-1.008,2.742,-0.047
2019-05-26-01:44:56.008882,0.292,-0.156,10.124,-7.100,-14.500,-6.400,-0.805,2.695,-0.078
2019-05-26-01:44:56.118636,0.301,-0.156,10.107,-8.100,-14.500,-6.400,-0.555,2.836,0.039
2019-05-26-01:44:56.228225,0.325,-0.146,10.129,-7.700,-14.100,-6.000,-0.953,3.016,-0.273
2019-05-26-01:44:56.338157,0.297,-0.167,10.134,-7.800,-14.300,-7.500,-0.805,2.492,0.148
2019-05-26-01:44:56.447922,0.292,-0.151,10.122,-7.300,-14.100,-6.300,-1.000,2.781,-0.117
2019-05-26-01:44:56.557762,0.290,-0.163,10.126,-6.700,-14.900,-5.400,-0.859,2.680,-0.203
2019-05-26-01:44:56.667363,0.290,-0.160,10.110,-7.700,-15.200,-6.000,-0.797,2.633,-0.164
2019-05-26-01:44:56.777306,0.290,-0.153,10.136,-6.600,-13.900,-6.500,-0.984,2.867,-0.211
2019-05-26-01:44:56.886931,0.282,-0.163,10.114,-8.400,-13.400,-5.900,-1.156,2.695,-0.164
2019-05-26-01:44:56.996526,0.294,-0.170,10.112,-7.700,-13.900,-6.200,-1.023,2.734,-0.078
2019-05-26-01:44:57.106273,0.304,-0.153,10.129,-7.800,-13.300,-5.900,-0.703,2.820,0.125
2019-05-26-01:44:57.215850,0.299,-0.167,10.148,-6.900,-13.800,-5.800,-1.250,2.562,-0.070
2019-05-26-01:44:57.325366,0.294,-0.148,10.126,-7.600,-13.000,-5.200,-0.969,2.586,-0.211
2019-05-26-01:44:57.434997,0.306,-0.153,10.112,-7.300,-12.600,-5.600,-1.203,2.758,-0.008
2019-05-26-01:44:57.544946,0.290,-0.160,10.122,-7.700,-13.700,-5.400,-1.180,2.758,-0.141
2019-05-26-01:44:57.654690,0.311,-0.158,10.122,-6.500,-14.400,-6.100,-1.664,2.805,-0.320
2019-05-26-01:44:57.764422,0.280,-0.160,10.122,-7.900,-12.800,-5.800,-0.945,2.695,-0.008
2019-05-26-01:44:57.874304,0.311,-0.163,10.124,-7.300,-14.300,-6.300,-1.156,2.797,-0.320
2019-05-26-01:44:57.984281,0.297,-0.156,10.129,-6.400,-14.200,-5.600,-0.828,2.734,-0.148
2019-05-26-01:44:58.094169,0.301,-0.151,10.126,-7.900,-14.000,-5.100,-1.477,2.797,-0.008
2019-05-26-01:44:58.203889,0.280,-0.151,10.119,-7.300,-14.800,-6.600,-0.773,2.656,0.008
2019-05-26-01:44:58.313512,0.297,-0.156,10.150,-7.500,-13.900,-5.300,-0.992,2.891,-0.023
2019-05-26-01:44:58.423125,0.278,-0.158,10.141,-7.400,-14.400,-5.200,-0.898,2.930,-0.203
2019-05-26-01:44:58.532888,0.301,-0.165,10.117,-6.700,-14.900,-5.600,-0.797,2.719,-0.180
2019-05-26-01:44:58.642551,0.292,-0.158,10.119,-7.000,-12.900,-5.400,-1.031,2.672,0.016
2019-05-26-01:44:58.752428,0.294,-0.163,10.124,-6.300,-14.200,-6.800,-1.234,2.781,-0.273
2019-05-26-01:44:58.862142,0.292,-0.165,10.124,-6.400,-13.600,-5.800,-0.773,2.648,-0.188
2019-05-26-01:44:58.971843,0.304,-0.153,10.129,-7.100,-13.900,-4.600,-1.211,2.758,-0.070
2019-05-26-01:44:59.081617,0.290,-0.156,10.124,-7.200,-15.300,-6.400,-1.047,2.625,-0.305
2019-05-26-01:44:59.191518,0.297,-0.151,10.126,-8.000,-13.800,-6.600,-0.891,2.539,-0.227
2019-05-26-01:44:59.301107,0.306,-0.151,10.124,-6.700,-14.400,-6.700,-0.922,2.578,0.062
2019-05-26-01:44:59.410801,0.285,-0.158,10.129,-7.800,-14.400,-6.700,-0.781,2.992,-0.273
2019-05-26-01:44:59.522734,0.292,-0.156,10.122,-6.300,-14.200,-6.100,-1.023,2.883,-0.297
2019-05-26-01:44:59.632426,0.294,-0.158,10.124,-7.100,-14.100,-7.100,-0.891,2.711,-0.125
2019-05-26-01:44:59.742050,0.285,-0.148,10.122,-6.900,-13.700,-8.700,-0.859,2.727,0.031
2019-05-26-01:44:59.851614,0.297,-0.156,10.126,-7.100,-13.800,-6.100,-0.695,2.719,-0.281
2019-05-26-01:44:59.961536,0.297,-0.158,10.129,-7.400,-14.100,-6.000,-0.867,2.656,-0.250
2019-05-26-01:45:00.071318,0.304,-0.151,10.105,-8.800,-14.100,-6.300,-0.742,2.734,-0.070
2019-05-26-01:45:00.181195,0.275,-0.151,10.124,-6.800,-13.400,-5.300,-1.266,2.672,-0.203
2019-05-26-01:45:00.290816,0.294,-0.158,10.124,-7.000,-13.200,-6.500,-1.289,2.500,0.039
2019-05-26-01:45:00.400633,0.282,-0.158,10.102,-7.900,-14.100,-7.400,-1.344,2.586,0.039
2019-05-26-01:45:00.510427,0.285,-0.151,10.126,-7.800,-13.300,-7.200,-0.664,2.500,0.086
2019-05-26-01:45:00.620235,0.290,-0.158,10.117,-7.000,-14.100,-6.500,-0.992,2.719,-0.211
2019-05-26-01:45:00.729827,0.309,-0.144,10.117,-8.000,-13.500,-6.500,-0.617,3.016,-0.070
2019-05-26-01:45:00.839419,0.292,-0.172,10.150,-7.200,-14.000,-5.200,-0.984,2.680,-0.211
2019-05-26-01:45:00.948987,0.304,-0.141,10.122,-7.400,-13.800,-6.300,-1.359,2.523,-0.211
2019-05-26-01:45:01.058756,0.301,-0.158,10.138,-6.500,-14.200,-6.500,-0.867,2.734,-0.148
2019-05-26-01:45:01.168711,0.304,-0.160,10.100,-7.000,-13.500,-6.000,-1.336,2.539,-0.234
2019-05-26-01:45:01.278396,0.297,-0.153,10.122,-7.000,-14.400,-5.700,-1.195,2.672,0.016
2019-05-26-01:45:01.387979,0.306,-0.153,10.141,-7.300,-13.300,-5.000,-1.023,2.453,0.102
2019-05-26-01:45:01.497606,0.287,-0.156,10.122,-8.300,-13.400,-7.700,-1.062,2.633,-0.078
2019-05-26-01:45:01.607611,0.301,-0.146,10.126,-7.200,-12.600,-5.400,-1.516,2.820,0.031
2019-05-26-01:45:01.717321,0.292,-0.160,10.124,-7.500,-13.600,-5.400,-0.984,2.547,0.008
2019-05-26-01:45:01.826961,0.290,-0.134,10.110,-6.900,-13.600,-6.800,-1.508,2.820,-0.188
2019-05-26-01:45:01.936503,0.280,-0.146,10.110,-7.000,-13.800,-7.000,-1.117,3.023,-0.023
2019-05-26-01:45:02.046388,0.301,-0.156,10.136,-7.700,-14.100,-7.200,-1.164,2.719,-0.117
2019-05-26-01:45:02.156087,0.287,-0.146,10.119,-7.500,-13.300,-7.200,-0.727,2.914,-0.141
2019-05-26-01:45:02.265720,0.280,-0.163,10.112,-7.000,-13.400,-3.400,-1.359,2.477,-0.148
2019-05-26-01:45:02.375650,0.311,-0.151,10.119,-6.100,-13.700,-5.900,-0.945,2.680,-0.148
2019-05-26-01:45:02.485332,0.292,-0.170,10.119,-6.800,-14.400,-5.800,-1.094,2.773,0.016
2019-05-26-01:45:02.595180,0.294,-0.158,10.122,-6.900,-14.700,-5.500,-1.062,2.797,-0.281
2019-05-26-01:45:02.704824,0.292,-0.146,10.136,-7.200,-14.100,-6.900,-1.156,2.625,-0.055
2019-05-26-01:45:02.814680,0.292,-0.132,10.124,-7.500,-14.900,-6.400,-1.211,2.719,-0.047
2019-05-26-01:45:02.924582,0.285,-0.158,10.117,-7.700,-12.900,-7.100,-1.094,2.805,-0.227
2019-05-26-01:45:03.034347,0.299,-0.170,10.124,-7.200,-13.500,-6.600,-1.016,2.656,-0.055
2019-05-26-01:45:03.144054,0.304,-0.153,10.114,-8.200,-14.200,-5.100,-1.062,2.766,-0.297
2019-05-26-01:45:03.253603,0.297,-0.156,10.119,-7.900,-13.400,-6.100,-1.156,2.680,-0.047
2019-05-26-01:45:03.363199,0.306,-0.163,10.110,-7.800,-14.600,-5.400,-1.469,2.805,-0.297
2019-05-26-01:45:03.472761,0.301,-0.160,10.122,-6.800,-13.700,-6.700,-1.109,2.508,-0.383
2019-05-26-01:45:03.582760,0.304,-0.156,10.107,-7.200,-14.500,-5.300,-1.422,2.633,-0.211
2019-05-26-01:45:03.692353,0.287,-0.156,10.124,-7.200,-14.200,-6.200,-1.305,2.844,0.039
2019-05-26-01:45:03.802113,0.287,-0.158,10.122,-7.700,-14.400,-5.700,-1.148,2.820,-0.203
2019-05-26-01:45:03.911683,0.297,-0.146,10.107,-6.100,-14.200,-7.300,-1.234,2.844,-0.008
2019-05-26-01:45:04.021633,0.297,-0.146,10.131,-7.200,-14.300,-6.700,-0.922,2.672,-0.070
2019-05-26-01:45:04.131282,0.301,-0.141,10.117,-7.100,-13.800,-6.200,-0.820,2.820,-0.250
2019-05-26-01:45:04.240828,0.292,-0.163,10.122,-7.500,-14.600,-6.000,-0.961,2.719,-0.273
2019-05-26-01:45:04.350467,0.297,-0.158,10.126,-6.400,-14.800,-5.900,-0.805,2.844,-0.148
2019-05-26-01:45:04.460246,0.278,-0.156,10.141,-7.700,-14.600,-8.100,-1.070,2.734,-0.148
2019-05-26-01:45:04.571106,0.301,-0.158,10.126,-8.000,-13.900,-5.600,-0.727,2.820,-0.078
2019-05-26-01:45:04.681155,0.292,-0.158,10.131,-6.900,-14.200,-5.700,-0.867,2.523,-0.055
2019-05-26-01:45:04.791134,0.309,-0.165,10.129,-6.900,-14.600,-5.700,-1.180,2.820,-0.078
2019-05-26-01:45:04.900799,0.287,-0.163,10.112,-7.800,-13.900,-6.200,-0.844,2.695,-0.070
2019-05-26-01:45:05.010620,0.292,-0.151,10.129,-6.900,-14.700,-6.800,-0.922,2.570,-0.180
2019-05-26-01:45:05.120390,0.270,-0.160,10.124,-8.000,-14.200,-5.900,-0.914,2.625,-0.055
2019-05-26-01:45:05.230428,0.301,-0.160,10.117,-7.200,-14.600,-6.800,-1.070,2.734,-0.047
2019-05-26-01:45:05.340342,0.285,-0.153,10.124,-7.000,-14.700,-6.600,-0.766,2.461,-0.102
2019-05-26-01:45:05.450170,0.290,-0.156,10.124,-6.100,-13.300,-5.800,-0.656,2.867,-0.188
2019-05-26-01:45:05.560005,0.287,-0.163,10.112,-6.700,-14.000,-6.300,-0.711,2.562,0.016
2019-05-26-01:45:05.669641,0.285,-0.158,10.124,-7.700,-14.100,-6.400,-0.961,2.609,-0.281
2019-05-26-01:45:05.779279,0.292,-0.151,10.119,-6.800,-13.900,-6.700,-0.781,2.648,-0.055
2019-05-26-01:45:05.888855,0.290,-0.165,10.124,-7.300,-13.300,-7.100,-0.898,2.883,-0.031
2019-05-26-01:45:05.998830,0.292,-0.156,10.122,-7.000,-13.500,-6.500,-1.109,2.734,-0.094
2019-05-26-01:45:06.108585,0.297,-0.151,10.117,-7.600,-14.100,-7.000,-0.578,2.648,-0.211
2019-05-26-01:45:06.218182,0.287,-0.153,10.122,-8.300,-14.200,-6.000,-0.820,2.656,-0.188
2019-05-26-01:45:06.327697,0.301,-0.136,10.112,-7.000,-14.200,-6.300,-0.797,2.930,-0.125
2019-05-26-01:45:06.437506,0.297,-0.144,10.148,-6.700,-14.300,-6.800,-1.164,2.914,-0.188
2019-05-26-01:45:06.547348,0.297,-0.153,10.126,-8.200,-13.900,-6.400,-1.344,2.688,0.078
2019-05-26-01:45:06.656948,0.287,-0.156,10.129,-7.700,-15.100,-6.300,-1.117,2.805,-0.047
2019-05-26-01:45:06.766484,0.278,-0.158,10.129,-7.600,-15.300,-5.900,-1.141,2.625,-0.180
2019-05-26-01:45:06.876179,0.282,-0.156,10.131,-7.500,-13.300,-5.300,-0.859,2.672,0.125
2019-05-26-01:45:06.985774,0.287,-0.153,10.124,-7.900,-14.400,-5.900,-0.750,2.828,-0.094
2019-05-26-01:45:07.095560,0.301,-0.175,10.117,-7.300,-12.300,-6.400,-0.945,2.820,-0.141
2019-05-26-01:45:07.205535,0.294,-0.160,10.126,-6.700,-13.900,-6.800,-0.969,2.664,0.188
2019-05-26-01:45:07.315119,0.297,-0.177,10.126,-7.700,-14.400,-5.900,-0.984,2.570,-0.070
2019-05-26-01:45:07.424750,0.301,-0.160,10.117,-7.100,-14.500,-5.900,-1.250,2.523,0.008
2019-05-26-01:45:07.534493,0.299,-0.167,10.138,-7.900,-13.900,-4.300,-1.133,2.633,-0.234
2019-05-26-01:45:07.644487,0.290,-0.141,10.119,-6.600,-14.800,-7.400,-0.664,2.602,0.055
2019-05-26-01:45:07.754117,0.299,-0.158,10.150,-7.200,-13.400,-7.200,-1.195,2.641,0.062
2019-05-26-01:45:07.864006,0.280,-0.160,10.134,-8.400,-14.400,-6.700,-1.047,2.594,-0.164
2019-05-26-01:45:07.975723,0.290,-0.156,10.119,-7.300,-14.500,-7.200,-0.891,2.711,-0.188
2019-05-26-01:45:08.085598,0.294,-0.177,10.148,-6.300,-13.500,-5.500,-1.094,3.016,-0.180
2019-05-26-01:45:08.195190,0.299,-0.158,10.126,-7.100,-13.700,-7.200,-1.016,2.656,-0.305
2019-05-26-01:45:08.304703,0.292,-0.153,10.134,-7.900,-14.200,-6.100,-1.227,2.680,-0.102
2019-05-26-01:45:08.414651,0.294,-0.156,10.122,-7.700,-15.200,-6.200,-1.062,2.844,-0.125
2019-05-26-01:45:08.524602,0.287,-0.160,10.122,-7.100,-13.800,-6.300,-0.727,2.719,-0.055
2019-05-26-01:45:08.634227,0.292,-0.153,10.119,-7.700,-12.600,-6.300,-1.188,2.633,-0.180
2019-05-26-01:45:08.744391,0.282,-0.165,10.110,-8.900,-14.100,-6.700,-0.586,2.680,-0.117
2019-05-26-01:45:08.854144,0.301,-0.146,10.117,-7.400,-14.400,-6.300,-0.992,2.711,0.016
2019-05-26-01:45:08.963883,0.292,-0.158,10.124,-7.200,-13.800,-6.200,-1.188,2.805,-0.078
2019-05-26-01:45:09.073658,0.306,-0.144,10.129,-7.300,-14.700,-6.000,-1.031,2.906,0.109
2019-05-26-01:45:09.183259,0.273,-0.160,10.124,-6.500,-14.300,-6.700,-1.312,2.828,-0.227
2019-05-26-01:45:09.292768,0.287,-0.165,10.124,-6.900,-13.200,-6.600,-0.820,2.758,-0.180
2019-05-26-01:45:09.402377,0.290,-0.148,10.146,-7.000,-13.500,-6.500,-1.031,2.758,0.016
2019-05-26-01:45:09.512164,0.294,-0.148,10.119,-7.200,-14.500,-6.800,-1.070,2.922,0.016
2019-05-26-01:45:09.622269,0.306,-0.156,10.138,-8.500,-13.900,-6.000,-1.180,2.781,-0.023
2019-05-26-01:45:09.731973,0.292,-0.151,10.122,-7.600,-13.900,-6.600,-1.328,2.633,-0.102
2019-05-26-01:45:09.841572,0.275,-0.153,10.110,-9.000,-14.000,-5.700,-0.844,2.680,-0.227
2019-05-26-01:45:09.951726,0.282,-0.160,10.110,-8.400,-13.900,-4.500,-1.070,2.758,-0.281
2019-05-26-01:45:10.061549,0.309,-0.158,10.119,-7.700,-12.300,-5.300,-0.836,2.906,0.039
2019-05-26-01:45:10.171150,0.306,-0.153,10.114,-7.700,-14.300,-6.800,-1.047,2.789,0.102
2019-05-26-01:45:10.280712,0.290,-0.144,10.112,-7.200,-13.600,-5.600,-0.938,2.852,-0.070
2019-05-26-01:45:10.390332,0.294,-0.141,10.129,-6.500,-13.700,-7.000,-0.898,2.477,-0.234
2019-05-26-01:45:10.500282,0.287,-0.163,10.119,-8.000,-14.800,-5.000,-0.867,2.742,-0.117
2019-05-26-01:45:10.610055,0.290,-0.144,10.136,-7.100,-13.700,-5.600,-0.719,2.914,-0.164
2019-05-26-01:45:10.719652,0.304,-0.148,10.126,-7.600,-14.000,-5.800,-1.164,2.727,0.016
2019-05-26-01:45:10.829572,0.292,-0.156,10.112,-6.400,-14.100,-7.000,-1.039,2.680,-0.273
2019-05-26-01:45:10.939165,0.280,-0.160,10.117,-8.000,-14.200,-7.100,-0.883,2.711,0.234
2019-05-26-01:45:11.048995,0.301,-0.151,10.138,-6.700,-14.000,-5.900,-1.016,2.758,0.062
2019-05-26-01:45:11.158919,0.294,-0.170,10.119,-7.200,-14.400,-6.100,-0.859,2.711,0.078
2019-05-26-01:45:11.268622,0.309,-0.146,10.126,-8.500,-13.800,-6.200,-0.945,2.820,-0.125
2019-05-26-01:45:11.378143,0.297,-0.160,10.138,-8.200,-12.700,-5.800,-0.484,2.859,0.062
2019-05-26-01:45:11.487782,0.292,-0.163,10.126,-7.200,-14.400,-5.400,-0.773,2.680,-0.023
2019-05-26-01:45:11.597558,0.297,-0.170,10.122,-8.700,-13.900,-5.700,-1.016,2.648,-0.328
2019-05-26-01:45:11.707158,0.290,-0.163,10.148,-6.900,-13.200,-5.600,-1.039,2.594,-0.070
2019-05-26-01:45:11.816794,0.299,-0.151,10.136,-6.700,-13.700,-6.700,-1.039,2.648,-0.273
2019-05-26-01:45:11.926294,0.304,-0.156,10.124,-7.300,-14.900,-8.400,-0.531,2.680,-0.055
2019-05-26-01:45:12.036154,0.297,-0.153,10.124,-7.100,-14.600,-5.800,-0.797,2.633,-0.117
2019-05-26-01:45:12.145762,0.299,-0.151,10.107,-7.800,-13.200,-5.600,-1.312,2.719,-0.023
2019-05-26-01:45:12.255323,0.280,-0.153,10.114,-7.200,-13.400,-5.500,-1.141,2.703,0.031
2019-05-26-01:45:12.365188,0.301,-0.160,10.134,-7.200,-14.400,-5.700,-1.352,2.695,-0.406
2019-05-26-01:45:12.474890,0.287,-0.163,10.131,-7.800,-15.200,-5.400,-0.969,2.797,-0.125
2019-05-26-01:45:12.584743,0.292,-0.151,10.119,-8.000,-13.500,-6.000,-1.180,2.906,0.008
2019-05-26-01:45:12.694334,0.290,-0.163,10.110,-8.100,-15.100,-7.200,-0.945,2.969,-0.117
2019-05-26-01:45:12.803992,0.297,-0.153,10.117,-6.400,-13.100,-6.500,-1.117,2.875,0.031
2019-05-26-01:45:12.913946,0.309,-0.160,10.112,-7.100,-13.600,-5.900,-0.578,2.977,-0.141
2019-05-26-01:45:13.023780,0.301,-0.163,10.117,-6.600,-13.500,-6.400,-1.328,2.820,-0.320
2019-05-26-01:45:13.133443,0.285,-0.151,10.122,-8.800,-13.700,-6.700,-1.227,2.648,-0.117
2019-05-26-01:45:13.243383,0.278,-0.160,10.119,-6.700,-15.200,-5.800,-1.008,2.609,-0.078
2019-05-26-01:45:13.352987,0.287,-0.158,10.117,-6.900,-14.200,-6.400,-1.289,2.719,-0.125
2019-05-26-01:45:13.462639,0.311,-0.134,10.126,-7.500,-13.200,-5.800,-0.523,2.648,-0.055
2019-05-26-01:45:13.572629,0.311,-0.151,10.105,-7.500,-14.100,-5.700,-1.156,2.766,-0.055
2019-05-26-01:45:13.682595,0.282,-0.153,10.124,-7.500,-12.900,-6.600,-1.305,2.586,-0.188
2019-05-26-01:45:13.792328,0.297,-0.136,10.129,-8.000,-13.000,-5.200,-0.914,2.648,-0.250
2019-05-26-01:45:13.902023,0.285,-0.160,10.117,-6.900,-14.400,-6.100,-1.016,2.719,-0.070
2019-05-26-01:45:14.011806,0.294,-0.156,10.131,-7.300,-13.200,-5.100,-0.719,2.734,-0.117
2019-05-26-01:45:14.121485,0.285,-0.153,10.117,-7.400,-13.900,-5.200,-0.875,2.773,0.031
2019-05-26-01:45:14.231051,0.278,-0.156,10.110,-7.400,-13.600,-5.800,-1.039,2.766,-0.180
2019-05-26-01:45:14.340598,0.299,-0.153,10.119,-6.700,-14.000,-5.100,-0.828,2.633,-0.305
2019-05-26-01:45:14.450498,0.292,-0.158,10.136,-7.600,-13.300,-6.100,-1.125,2.625,0.055
2019-05-26-01:45:14.560417,0.297,-0.163,10.131,-7.000,-13.800,-6.600,-1.266,2.750,0.086
2019-05-26-01:45:14.670032,0.278,-0.156,10.119,-8.300,-14.600,-5.500,-0.781,2.953,-0.102
2019-05-26-01:45:14.779968,0.294,-0.165,10.134,-7.400,-13.900,-6.600,-0.945,2.734,-0.023
2019-05-26-01:45:14.889593,0.285,-0.158,10.119,-7.100,-14.100,-6.400,-0.898,2.750,0.086
2019-05-26-01:45:14.999193,0.287,-0.148,10.136,-7.000,-14.200,-4.800,-0.742,2.570,-0.406
2019-05-26-01:45:15.108958,0.294,-0.163,10.158,-7.700,-13.800,-6.600,-1.000,2.492,0.078
2019-05-26-01:45:15.218637,0.299,-0.141,10.105,-7.900,-13.900,-4.400,-1.430,2.656,-0.180
2019-05-26-01:45:15.328180,0.285,-0.151,10.134,-7.900,-12.700,-4.800,-0.969,2.711,-0.297
2019-05-26-01:45:15.437772,0.287,-0.148,10.134,-5.800,-14.200,-5.200,-1.070,2.430,0.031
2019-05-26-01:45:15.547560,0.294,-0.148,10.119,-7.000,-14.800,-5.700,-0.875,2.758,-0.234
2019-05-26-01:45:15.657586,0.292,-0.148,10.124,-7.400,-14.700,-6.400,-0.742,2.570,-0.258
2019-05-26-01:45:15.767471,0.309,-0.151,10.117,-7.800,-14.200,-6.400,-0.820,2.758,-0.320
2019-05-26-01:45:15.877158,0.297,-0.141,10.129,-6.800,-13.400,-6.300,-1.094,2.625,-0.047
2019-05-26-01:45:15.987120,0.301,-0.160,10.126,-6.000,-13.300,-6.300,-0.453,2.680,-0.031
2019-05-26-01:45:16.096916,0.311,-0.139,10.122,-7.300,-14.300,-5.400,-1.195,2.617,0.062
2019-05-26-01:45:16.206666,0.316,-0.153,10.112,-6.900,-14.500,-5.800,-0.898,2.547,-0.344
2019-05-26-01:45:16.318281,0.297,-0.153,10.112,-7.300,-13.400,-5.800,-1.453,2.648,-0.141
2019-05-26-01:45:16.427980,0.301,-0.136,10.122,-7.100,-12.500,-6.800,-1.062,2.680,-0.164
2019-05-26-01:45:16.537723,0.311,-0.148,10.117,-7.800,-15.200,-7.100,-1.312,2.867,-0.273
2019-05-26-01:45:16.647309,0.292,-0.148,10.138,-7.700,-14.400,-6.600,-1.156,2.648,-0.180
2019-05-26-01:45:16.758404,0.287,-0.153,10.150,-6.900,-14.100,-6.400,-1.312,2.516,0.086
2019-05-26-01:45:16.868514,0.294,-0.151,10.105,-7.600,-14.400,-6.200,-1.266,2.594,-0.094
2019-05-26-01:45:16.978271,0.316,-0.127,10.138,-6.900,-13.300,-8.100,-0.727,2.484,-0.023
2019-05-26-01:45:17.088239,0.321,-0.158,10.126,-7.400,-14.000,-6.800,-1.008,2.781,-0.188
2019-05-26-01:45:17.198228,0.282,-0.139,10.129,-6.000,-15.000,-5.800,-1.242,2.555,0.055
2019-05-26-01:45:17.308109,0.287,-0.170,10.124,-6.900,-14.100,-6.000,-0.867,2.625,-0.117
2019-05-26-01:45:17.417880,0.287,-0.148,10.112,-6.400,-14.200,-5.800,-0.820,2.742,-0.094
2019-05-26-01:45:17.527841,0.285,-0.167,10.112,-6.800,-15.000,-5.000,-0.578,2.844,-0.258
2019-05-26-01:45:17.637529,0.292,-0.151,10.119,-7.600,-13.600,-6.200,-1.047,2.477,0.055
2019-05-26-01:45:17.747241,0.290,-0.156,10.119,-6.900,-13.400,-6.000,-1.289,2.797,-0.227
2019-05-26-01:45:17.857069,0.309,-0.122,10.112,-6.300,-14.000,-4.500,-0.867,2.734,-0.070
2019-05-26-01:45:17.967357,0.297,-0.160,10.102,-6.400,-14.700,-6.200,-1.289,2.961,0.039
2019-05-26-01:45:18.077252,0.304,-0.151,10.134,-7.300,-13.600,-6.700,-1.359,2.656,-0.180
2019-05-26-01:45:18.186867,0.278,-0.163,10.119,-7.600,-14.100,-5.400,-1.133,2.656,-0.273
2019-05-26-01:45:18.296467,0.282,-0.148,10.107,-6.700,-14.400,-6.200,-1.047,2.805,-0.148
2019-05-26-01:45:18.406454,0.273,-0.153,10.131,-7.500,-15.200,-5.600,-0.695,2.719,-0.234
2019-05-26-01:45:18.516520,0.299,-0.151,10.122,-8.100,-14.600,-6.200,-0.875,2.969,-0.203
2019-05-26-01:45:18.626491,0.297,-0.158,10.126,-7.700,-13.100,-7.500,-0.672,2.656,-0.203
2019-05-26-01:45:18.736196,0.287,-0.148,10.114,-7.200,-13.600,-5.300,-0.727,2.633,-0.203
2019-05-26-01:45:18.845783,0.301,-0.151,10.114,-7.000,-13.200,-6.300,-1.242,2.750,0.031
2019-05-26-01:45:18.955369,0.280,-0.151,10.122,-7.800,-14.000,-5.700,-0.977,2.727,0.039
2019-05-26-01:45:19.065152,0.297,-0.165,10.112,-7.500,-14.100,-6.000,-0.992,2.562,0.156
2019-05-26-01:45:19.175155,0.273,-0.156,10.129,-7.300,-14.000,-6.000,-0.984,2.586,-0.211
2019-05-26-01:45:19.284767,0.297,-0.146,10.126,-8.200,-13.800,-5.200,-1.281,2.648,-0.258
2019-05-26-01:45:19.394510,0.301,-0.146,10.141,-8.200,-13.700,-5.400,-1.109,2.719,-0.203
2019-05-26-01:45:19.504457,0.301,-0.141,10.126,-7.700,-13.800,-6.100,-1.406,2.875,0.055
2019-05-26-01:45:19.614501,0.280,-0.153,10.107,-7.800,-13.200,-5.700,-0.891,2.766,-0.008
2019-05-26-01:45:19.724135,0.294,-0.146,10.134,-7.100,-13.700,-4.500,-1.031,2.789,0.039
2019-05-26-01:45:19.833777,0.280,-0.132,10.134,-7.200,-13.600,-7.000,-1.016,2.711,0.008
2019-05-26-01:45:19.943317,0.287,-0.160,10.136,-7.500,-13.900,-5.400,-0.750,2.977,-0.008
2019-05-26-01:45:20.053108,0.294,-0.167,10.136,-7.600,-15.200,-5.200,-0.828,2.766,-0.078
2019-05-26-01:45:20.162739,0.304,-0.139,10.134,-6.600,-13.500,-6.800,-0.898,2.742,-0.141
2019-05-26-01:45:20.272305,0.287,-0.153,10.136,-6.900,-13.900,-6.800,-1.227,2.852,-0.227
2019-05-26-01:45:20.382250,0.311,-0.163,10.119,-7.200,-13.700,-5.300,-0.914,2.734,-0.320
2019-05-26-01:45:20.492087,0.297,-0.136,10.122,-7.600,-13.200,-7.500,-1.180,2.633,-0.281
2019-05-26-01:45:20.602121,0.297,-0.158,10.110,-8.100,-14.100,-5.900,-0.945,2.672,-0.250
2019-05-26-01:45:20.711773,0.304,-0.151,10.138,-7.800,-13.600,-6.100,-1.023,2.719,-0.188
2019-05-26-01:45:20.821765,0.309,-0.158,10.100,-6.900,-13.200,-4.400,-0.672,2.648,-0.188
2019-05-26-01:45:20.931392,0.294,-0.144,10.131,-7.300,-13.400,-7.000,-1.023,2.844,-0.008
2019-05-26-01:45:21.041227,0.294,-0.156,10.141,-7.400,-13.100,-7.700,-0.836,2.578,0.031
2019-05-26-01:45:21.150816,0.294,-0.148,10.134,-8.400,-13.600,-5.700,-0.766,2.844,-0.211
2019-05-26-01:45:21.260414,0.306,-0.151,10.138,-7.800,-13.300,-5.900,-1.164,2.656,-0.180
2019-05-26-01:45:21.369926,0.301,-0.163,10.136,-7.500,-14.100,-5.900,-0.828,2.797,-0.164
2019-05-26-01:45:21.479759,0.275,-0.144,10.134,-7.600,-13.900,-7.100,-0.984,2.695,-0.117
2019-05-26-01:45:21.589675,0.301,-0.146,10.119,-8.500,-14.000,-6.000,-1.016,2.719,-0.148
2019-05-26-01:45:21.699268,0.292,-0.156,10.124,-8.000,-14.200,-6.000,-1.117,2.883,-0.203
2019-05-26-01:45:21.808877,0.285,-0.156,10.141,-7.200,-13.100,-6.200,-0.648,2.609,-0.367
2019-05-26-01:45:21.918498,0.285,-0.151,10.107,-7.600,-14.600,-6.300,-0.984,2.758,-0.148
2019-05-26-01:45:22.028460,0.292,-0.141,10.136,-7.300,-13.200,-5.700,-0.867,2.523,-0.141
2019-05-26-01:45:22.138162,0.306,-0.153,10.138,-6.700,-13.900,-5.400,-1.172,2.711,0.039
2019-05-26-01:45:22.247801,0.301,-0.151,10.136,-8.200,-14.900,-5.500,-0.750,2.734,-0.148
2019-05-26-01:45:22.357333,0.299,-0.156,10.129,-7.900,-14.000,-5.600,-1.531,2.594,-0.203
2019-05-26-01:45:22.467020,0.280,-0.172,10.131,-7.400,-13.200,-5.400,-0.914,2.672,-0.258
2019-05-26-01:45:22.576847,0.287,-0.148,10.134,-6.900,-13.200,-7.100,-1.281,2.547,-0.125
2019-05-26-01:45:22.686404,0.309,-0.146,10.110,-7.600,-14.100,-6.700,-1.141,2.461,-0.125
2019-05-26-01:45:22.796452,0.301,-0.146,10.110,-7.500,-13.600,-5.800,-0.898,2.852,-0.250
2019-05-26-01:45:22.906403,0.297,-0.144,10.126,-8.500,-13.500,-4.200,-0.992,2.930,-0.297
2019-05-26-01:45:23.016314,0.301,-0.151,10.131,-6.800,-13.100,-6.000,-0.875,2.766,-0.227
2019-05-26-01:45:23.126138,0.287,-0.153,10.134,-6.700,-13.700,-6.100,-1.000,2.773,0.039
2019-05-26-01:45:23.236082,0.297,-0.144,10.112,-7.500,-14.500,-5.800,-0.898,2.609,-0.180
2019-05-26-01:45:23.345799,0.287,-0.160,10.126,-7.600,-13.600,-7.100,-0.680,2.570,-0.117
2019-05-26-01:45:23.455649,0.287,-0.148,10.122,-7.200,-14.500,-6.000,-0.969,2.742,0.008
2019-05-26-01:45:23.565636,0.292,-0.165,10.126,-7.100,-14.200,-7.400,-1.289,2.703,0.148
2019-05-26-01:45:23.675292,0.275,-0.156,10.102,-7.700,-13.700,-4.800,-1.305,2.570,-0.117
2019-05-26-01:45:23.784849,0.299,-0.156,10.100,-7.100,-14.000,-4.600,-1.422,2.781,-0.250
2019-05-26-01:45:23.894407,0.292,-0.151,10.126,-7.900,-14.500,-5.400,-0.586,2.422,-0.227
2019-05-26-01:45:24.004392,0.292,-0.160,10.117,-7.000,-14.100,-6.800,-0.914,2.609,-0.031
2019-05-26-01:45:24.114086,0.301,-0.151,10.129,-6.400,-13.400,-5.600,-1.094,2.469,0.102
2019-05-26-01:45:24.223734,0.292,-0.153,10.114,-6.700,-13.800,-6.500,-0.891,2.914,-0.180
2019-05-26-01:45:24.333263,0.294,-0.156,10.119,-7.200,-14.100,-6.700,-0.945,2.625,-0.055
2019-05-26-01:45:24.443085,0.299,-0.153,10.114,-6.400,-15.200,-7.200,-0.750,2.867,-0.203
2019-05-26-01:45:24.553018,0.297,-0.151,10.136,-7.000,-14.400,-6.600,-1.211,2.578,0.078
2019-05-26-01:45:24.662700,0.301,-0.151,10.122,-7.500,-14.500,-6.100,-1.289,2.930,-0.141
2019-05-26-01:45:24.774391,0.304,-0.141,10.129,-7.400,-15.100,-6.100,-1.117,2.930,-0.070
2019-05-26-01:45:24.884088,0.282,-0.141,10.129,-7.900,-14.600,-4.900,-0.695,2.930,-0.125
2019-05-26-01:45:24.993733,0.280,-0.172,10.129,-6.500,-13.600,-5.800,-1.094,2.844,-0.203
2019-05-26-01:45:25.103552,0.299,-0.165,10.141,-7.300,-13.600,-7.000,-0.734,2.578,0.109
2019-05-26-01:45:25.213566,0.304,-0.163,10.112,-7.300,-13.600,-7.100,-0.672,2.867,-0.102
2019-05-26-01:45:25.323162,0.306,-0.153,10.124,-7.000,-14.500,-6.500,-0.852,2.867,-0.164
2019-05-26-01:45:25.432896,0.290,-0.146,10.124,-7.000,-14.500,-6.200,-0.992,2.562,0.055
2019-05-26-01:45:25.542731,0.292,-0.148,10.134,-8.400,-13.700,-4.900,-1.250,2.680,-0.203
2019-05-26-01:45:25.652743,0.297,-0.151,10.136,-7.900,-13.400,-6.600,-0.609,2.836,0.039
2019-05-26-01:45:25.762372,0.301,-0.160,10.119,-8.100,-13.600,-6.700,-1.047,2.781,-0.094
2019-05-26-01:45:25.872048,0.301,-0.148,10.143,-7.900,-14.400,-4.800,-0.805,2.891,-0.344
2019-05-26-01:45:25.981969,0.301,-0.156,10.122,-8.000,-15.300,-6.000,-0.852,2.648,0.031
2019-05-26-01:45:26.091863,0.290,-0.163,10.124,-6.400,-13.900,-5.400,-1.312,2.562,-0.023
2019-05-26-01:45:26.201495,0.301,-0.144,10.124,-7.500,-13.200,-5.800,-1.500,2.836,0.039
2019-05-26-01:45:26.311047,0.294,-0.156,10.117,-7.100,-14.200,-4.500,-0.625,2.719,-0.117
2019-05-26-01:45:26.420949,0.318,-0.153,10.124,-7.500,-13.600,-5.800,-1.203,2.633,-0.031
2019-05-26-01:45:26.530795,0.299,-0.151,10.117,-7.900,-15.200,-7.100,-0.969,2.820,0.008
2019-05-26-01:45:26.640484,0.285,-0.160,10.124,-8.000,-14.000,-6.100,-0.828,2.859,0.125
2019-05-26-01:45:26.750025,0.301,-0.158,10.122,-7.900,-13.600,-6.200,-0.945,2.781,-0.211
2019-05-26-01:45:26.859955,0.287,-0.172,10.110,-7.600,-12.900,-5.200,-1.109,2.758,-0.180
2019-05-26-01:45:26.969613,0.299,-0.160,10.105,-8.100,-13.300,-4.100,-0.969,2.711,-0.055
2019-05-26-01:45:27.079390,0.287,-0.129,10.110,-7.400,-13.200,-5.700,-0.820,2.758,-0.117
2019-05-26-01:45:27.188959,0.299,-0.153,10.131,-7.000,-14.200,-7.100,-1.164,2.906,-0.180
2019-05-26-01:45:27.298600,0.304,-0.163,10.117,-8.400,-12.900,-6.800,-0.828,2.734,-0.023
2019-05-26-01:45:27.408250,0.290,-0.153,10.100,-6.300,-13.900,-5.100,-1.039,2.570,-0.102
2019-05-26-01:45:27.518198,0.285,-0.144,10.136,-7.500,-13.900,-6.900,-0.875,2.625,-0.117
2019-05-26-01:45:27.628139,0.285,-0.148,10.138,-7.500,-13.100,-6.100,-0.828,2.719,-0.031
2019-05-26-01:45:27.737759,0.297,-0.156,10.107,-7.400,-14.800,-6.300,-1.289,2.648,-0.273
2019-05-26-01:45:27.847374,0.292,-0.158,10.148,-6.900,-14.200,-5.500,-0.430,2.711,-0.297
2019-05-26-01:45:27.957209,0.292,-0.141,10.122,-8.300,-13.800,-6.800,-1.336,2.586,0.109
2019-05-26-01:45:28.067218,0.301,-0.167,10.117,-8.000,-13.800,-5.500,-1.156,2.742,-0.406
2019-05-26-01:45:28.176859,0.299,-0.153,10.131,-7.600,-13.400,-7.000,-1.156,2.562,-0.141
2019-05-26-01:45:28.286455,0.301,-0.153,10.122,-7.200,-13.500,-4.900,-1.156,2.906,-0.055
2019-05-26-01:45:28.396154,0.292,-0.156,10.100,-6.600,-15.000,-6.000,-0.648,2.500,-0.094
2019-05-26-01:45:28.505828,0.306,-0.160,10.126,-6.700,-12.700,-4.300,-1.023,2.969,0.008
2019-05-26-01:45:28.615640,0.290,-0.170,10.131,-7.800,-13.700,-5.600,-0.945,2.625,-0.070
2019-05-26-01:45:28.725362,0.292,-0.156,10.122,-7.500,-13.700,-6.500,-0.992,2.516,0.055
2019-05-26-01:45:28.835321,0.297,-0.146,10.134,-6.400,-13.500,-5.200,-0.695,2.633,-0.164
2019-05-26-01:45:28.944911,0.304,-0.146,10.122,-7.600,-13.900,-5.100,-1.109,2.797,-0.148
2019-05-26-01:45:29.054700,0.282,-0.160,10.124,-6.400,-13.500,-4.800,-1.016,2.695,-0.102
2019-05-26-01:45:29.164399,0.292,-0.146,10.129,-7.700,-14.600,-7.300,-1.352,2.742,-0.125
2019-05-26-01:45:29.274370,0.282,-0.160,10.114,-7.300,-13.700,-4.800,-0.953,2.516,0.211
2019-05-26-01:45:29.384097,0.297,-0.165,10.107,-6.700,-13.600,-5.500,-0.805,2.766,-0.227
2019-05-26-01:45:29.493947,0.285,-0.151,10.112,-6.100,-15.100,-5.600,-1.016,2.656,-0.125
2019-05-26-01:45:29.603905,0.290,-0.136,10.114,-7.100,-13.900,-6.900,-0.812,2.750,0.133
2019-05-26-01:45:29.713525,0.294,-0.148,10.136,-7.700,-13.100,-6.200,-1.016,2.820,0.086
2019-05-26-01:45:29.823146,0.294,-0.148,10.126,-6.700,-13.600,-6.300,-0.969,2.883,0.102
2019-05-26-01:45:29.932710,0.292,-0.158,10.114,-6.900,-13.900,-5.800,-1.070,2.633,-0.070
2019-05-26-01:45:30.042667,0.304,-0.146,10.124,-6.800,-14.200,-5.600,-1.531,2.625,0.062
2019-05-26-01:45:30.152299,0.290,-0.160,10.138,-6.400,-14.300,-5.900,-1.039,2.539,-0.070
2019-05-26-01:45:30.261929,0.285,-0.153,10.122,-7.000,-14.000,-4.700,-0.531,2.914,-0.188
2019-05-26-01:45:30.372848,0.301,-0.156,10.110,-6.500,-13.800,-5.400,-1.062,2.906,-0.234
2019-05-26-01:45:30.482884,0.304,-0.163,10.117,-6.200,-14.200,-4.300,-0.812,2.984,0.062
2019-05-26-01:45:30.592784,0.292,-0.153,10.131,-7.400,-14.700,-5.200,-0.891,2.883,-0.180
2019-05-26-01:45:30.702426,0.304,-0.151,10.119,-7.500,-12.900,-5.700,-0.883,2.641,0.266
2019-05-26-01:45:30.812138,0.292,-0.156,10.114,-7.200,-14.600,-6.200,-0.859,2.711,0.102
2019-05-26-01:45:30.921909,0.294,-0.151,10.131,-7.700,-13.800,-5.400,-0.992,2.586,-0.102
2019-05-26-01:45:31.031722,0.301,-0.160,10.114,-6.500,-13.200,-5.000,-1.062,2.867,-0.180
2019-05-26-01:45:31.141588,0.297,-0.148,10.117,-7.100,-13.200,-5.900,-0.969,2.688,0.062
2019-05-26-01:45:31.251630,0.306,-0.148,10.114,-7.100,-12.600,-6.300,-0.938,2.438,-0.367
2019-05-26-01:45:31.361243,0.297,-0.153,10.110,-6.800,-14.100,-5.500,-0.680,2.586,-0.188
2019-05-26-01:45:31.471029,0.306,-0.153,10.153,-7.800,-13.900,-5.200,-0.875,2.594,-0.305
2019-05-26-01:45:31.580891,0.285,-0.158,10.136,-8.200,-14.300,-5.800,-0.688,2.750,0.086
2019-05-26-01:45:31.690798,0.306,-0.158,10.122,-6.900,-14.100,-5.000,-0.602,2.852,-0.023
2019-05-26-01:45:31.800479,0.294,-0.153,10.122,-7.300,-13.900,-5.900,-0.672,2.766,-0.047
2019-05-26-01:45:31.910177,0.297,-0.146,10.112,-7.300,-15.000,-6.100,-0.609,2.867,-0.141
2019-05-26-01:45:32.019964,0.297,-0.153,10.131,-6.600,-14.000,-6.900,-0.719,2.609,-0.258
2019-05-26-01:45:32.129655,0.297,-0.146,10.100,-7.700,-13.100,-5.100,-1.016,2.508,-0.250
2019-05-26-01:45:32.239252,0.292,-0.177,10.117,-6.900,-13.700,-5.900,-0.984,2.672,-0.180
2019-05-26-01:45:32.348770,0.301,-0.151,10.119,-7.200,-14.000,-6.200,-0.938,2.633,-0.281
2019-05-26-01:45:32.458746,0.273,-0.158,10.119,-7.500,-13.900,-6.700,-1.086,2.844,-0.055
2019-05-26-01:45:32.568706,0.282,-0.139,10.114,-6.900,-13.700,-5.600,-0.781,2.719,0.008
2019-05-26-01:45:32.678389,0.294,-0.146,10.105,-6.800,-13.900,-4.700,-1.070,2.828,-0.047
2019-05-26-01:45:32.787937,0.301,-0.156,10.136,-7.800,-14.800,-7.000,-1.109,2.852,-0.094
2019-05-26-01:45:32.897794,0.287,-0.151,10.122,-7.000,-13.500,-6.000,-0.703,2.352,-0.281
2019-05-26-01:45:33.007545,0.292,-0.153,10.129,-7.100,-13.500,-6.300,-0.984,2.797,-0.078
2019-05-26-01:45:33.119169,0.306,-0.153,10.126,-6.300,-13.800,-6.400,-0.812,2.641,-0.078
2019-05-26-01:45:33.228839,0.290,-0.139,10.114,-8.900,-14.000,-5.500,-1.188,2.609,-0.078
2019-05-26-01:45:33.338476,0.306,-0.165,10.114,-6.700,-13.200,-6.500,-1.023,2.711,0.008
2019-05-26-01:45:33.448376,0.301,-0.153,10.119,-6.600,-14.800,-5.700,-1.016,2.672,-0.008
2019-05-26-01:45:33.558223,0.287,-0.160,10.098,-7.000,-14.500,-5.700,-0.898,2.680,-0.102
2019-05-26-01:45:33.668219,0.297,-0.153,10.131,-7.900,-13.300,-6.200,-1.031,2.602,0.125
2019-05-26-01:45:33.777946,0.294,-0.148,10.122,-6.800,-13.700,-6.300,-0.625,2.828,0.008
2019-05-26-01:45:33.887618,0.294,-0.151,10.146,-8.300,-13.000,-6.700,-1.023,2.531,-0.047
2019-05-26-01:45:33.997360,0.313,-0.153,10.126,-7.400,-13.200,-6.400,-0.531,2.500,-0.055
2019-05-26-01:45:34.107416,0.290,-0.172,10.112,-7.100,-14.500,-6.000,-1.094,2.648,0.156
2019-05-26-01:45:34.217044,0.287,-0.158,10.129,-7.700,-13.400,-5.700,-0.875,2.641,0.016
2019-05-26-01:45:34.326567,0.290,-0.134,10.126,-7.800,-13.800,-4.900,-0.828,2.805,-0.055
2019-05-26-01:45:34.436316,0.294,-0.146,10.124,-8.600,-14.300,-5.200,-0.938,2.820,0.109
2019-05-26-01:45:34.546238,0.290,-0.146,10.126,-8.300,-14.300,-5.400,-1.086,2.711,-0.328
2019-05-26-01:45:34.656422,0.306,-0.148,10.141,-8.700,-13.000,-6.000,-1.352,2.711,0.148
2019-05-26-01:45:34.766517,0.304,-0.153,10.119,-7.200,-14.400,-6.400,-0.781,2.562,-0.211
2019-05-26-01:45:34.876701,0.304,-0.139,10.155,-7.300,-13.600,-5.100,-0.906,2.875,0.016
2019-05-26-01:45:34.986452,0.285,-0.136,10.122,-7.800,-13.500,-7.600,-0.938,2.734,-0.148
2019-05-26-01:45:35.096369,0.282,-0.160,10.119,-7.500,-13.900,-4.800,-1.070,2.609,-0.180
2019-05-26-01:45:35.206809,0.294,-0.158,10.138,-7.900,-14.300,-6.000,-1.047,2.742,-0.281
2019-05-26-01:45:35.316572,0.294,-0.144,10.117,-7.300,-14.600,-5.200,-0.852,2.836,0.102
2019-05-26-01:45:35.426323,0.290,-0.146,10.124,-7.700,-13.400,-5.900,-1.094,2.602,0.133
2019-05-26-01:45:35.536284,0.294,-0.153,10.112,-6.600,-13.300,-5.500,-1.195,2.562,0.016
2019-05-26-01:45:35.646057,0.304,-0.163,10.129,-7.600,-13.700,-6.700,-0.805,2.633,-0.055
2019-05-26-01:45:35.755683,0.297,-0.165,10.119,-7.500,-13.700,-4.900,-1.320,2.641,0.039
2019-05-26-01:45:35.865265,0.299,-0.153,10.117,-6.800,-13.800,-6.700,-0.961,2.883,-0.148
2019-05-26-01:45:35.974883,0.290,-0.151,10.143,-7.600,-13.800,-5.400,-0.750,2.867,-0.078
2019-05-26-01:45:36.084846,0.278,-0.158,10.141,-7.300,-13.300,-5.200,-0.852,2.711,-0.008
2019-05-26-01:45:36.194431,0.294,-0.160,10.100,-6.700,-14.100,-3.900,-1.320,2.703,0.211
2019-05-26-01:45:36.304268,0.297,-0.146,10.126,-7.300,-14.700,-6.700,-0.898,2.477,-0.438
2019-05-26-01:45:36.414381,0.301,-0.156,10.114,-6.700,-13.300,-7.300,-0.961,2.883,0.008
2019-05-26-01:45:36.524333,0.294,-0.160,10.134,-7.600,-14.000,-5.700,-0.891,2.414,-0.055
2019-05-26-01:45:36.634222,0.285,-0.156,10.138,-8.500,-14.000,-6.000,-0.781,2.883,0.156
2019-05-26-01:45:36.743887,0.287,-0.156,10.143,-7.500,-13.100,-4.900,-1.008,2.766,-0.188
2019-05-26-01:45:36.853490,0.294,-0.153,10.114,-6.000,-13.300,-6.100,-0.820,2.594,-0.125
2019-05-26-01:45:36.963037,0.301,-0.146,10.146,-6.900,-13.600,-6.300,-1.094,2.680,-0.125
2019-05-26-01:45:37.072814,0.290,-0.156,10.136,-7.800,-14.200,-5.000,-1.141,2.836,0.133
2019-05-26-01:45:37.182403,0.299,-0.156,10.117,-7.200,-14.200,-6.400,-0.766,2.805,-0.117
2019-05-26-01:45:37.292348,0.294,-0.144,10.122,-7.400,-13.600,-7.200,-0.875,2.930,0.078
2019-05-26-01:45:37.402087,0.285,-0.160,10.095,-7.200,-13.400,-4.900,-1.305,2.766,-0.281
2019-05-26-01:45:37.512095,0.290,-0.167,10.131,-7.600,-14.000,-4.600,-1.156,2.625,-0.148
2019-05-26-01:45:37.622160,0.294,-0.156,10.126,-7.700,-13.800,-5.800,-1.016,2.648,0.172
2019-05-26-01:45:37.731791,0.287,-0.148,10.114,-7.700,-12.400,-6.000,-1.062,2.500,-0.273
2019-05-26-01:45:37.841396,0.299,-0.170,10.129,-7.000,-13.500,-5.200,-0.961,2.586,-0.078
2019-05-26-01:45:37.951285,0.292,-0.156,10.141,-7.700,-13.500,-5.400,-1.016,2.695,-0.094
2019-05-26-01:45:38.061151,0.306,-0.160,10.136,-7.200,-13.300,-5.800,-1.305,2.781,-0.258
2019-05-26-01:45:38.170788,0.304,-0.146,10.146,-7.100,-13.700,-6.500,-1.305,2.594,-0.078
2019-05-26-01:45:38.280412,0.299,-0.165,10.129,-8.400,-13.700,-5.000,-1.234,2.984,0.016
2019-05-26-01:45:38.390001,0.290,-0.153,10.134,-8.200,-13.200,-6.100,-1.008,2.570,-0.406
2019-05-26-01:45:38.499923,0.285,-0.156,10.131,-6.600,-14.300,-6.100,-0.805,2.523,-0.164
2019-05-26-01:45:38.609771,0.301,-0.148,10.112,-6.400,-14.300,-5.600,-0.875,2.820,0.008
2019-05-26-01:45:38.719381,0.285,-0.156,10.131,-6.500,-13.800,-6.500,-1.016,2.523,-0.188
2019-05-26-01:45:38.829236,0.297,-0.146,10.114,-8.300,-14.300,-5.600,-1.250,2.648,-0.023
2019-05-26-01:45:38.938904,0.301,-0.151,10.117,-6.600,-13.400,-5.600,-0.938,2.820,-0.117
2019-05-26-01:45:39.048739,0.294,-0.158,10.126,-6.800,-13.900,-5.700,-1.281,2.680,-0.125
2019-05-26-01:45:39.158475,0.301,-0.153,10.112,-6.700,-14.400,-4.700,-1.211,2.789,0.055
2019-05-26-01:45:39.268034,0.294,-0.148,10.124,-7.600,-13.200,-5.700,-0.852,2.656,-0.102
2019-05-26-01:45:39.377591,0.299,-0.146,10.102,-7.500,-13.800,-4.000,-1.188,2.867,-0.203
2019-05-26-01:45:39.487360,0.297,-0.132,10.117,-8.800,-13.700,-6.300,-1.234,2.742,-0.203
2019-05-26-01:45:39.597240,0.299,-0.163,10.131,-7.000,-14.100,-4.900,-1.164,2.844,-0.125
2019-05-26-01:45:39.707142,0.290,-0.163,10.105,-7.600,-13.600,-5.800,-1.023,2.672,-0.211
2019-05-26-01:45:39.816789,0.292,-0.148,10.129,-7.400,-14.700,-4.500,-0.852,2.758,0.055
2019-05-26-01:45:39.926323,0.299,-0.163,10.119,-8.800,-14.100,-5.300,-0.852,2.797,-0.188
2019-05-26-01:45:40.036297,0.309,-0.170,10.110,-7.300,-14.100,-5.300,-0.680,2.953,-0.148
2019-05-26-01:45:40.146089,0.278,-0.151,10.110,-7.300,-13.600,-5.200,-0.891,2.570,-0.125
2019-05-26-01:45:40.255741,0.309,-0.156,10.105,-6.100,-13.100,-5.400,-0.781,2.742,0.008
2019-05-26-01:45:40.365280,0.292,-0.148,10.143,-7.800,-13.500,-6.800,-0.969,2.742,-0.125
2019-05-26-01:45:40.474943,0.304,-0.158,10.136,-7.500,-15.000,-6.000,-1.359,2.688,0.055
2019-05-26-01:45:40.584717,0.285,-0.151,10.112,-7.400,-13.400,-5.400,-0.992,2.562,-0.094
2019-05-26-01:45:40.694283,0.294,-0.158,10.124,-9.000,-14.600,-8.400,-0.844,2.711,0.008
2019-05-26-01:45:40.803875,0.290,-0.172,10.114,-8.100,-13.400,-5.200,-1.000,2.602,0.055
2019-05-26-01:45:40.913886,0.290,-0.158,10.134,-6.700,-12.700,-6.600,-1.406,2.758,-0.141
2019-05-26-01:45:41.023687,0.294,-0.151,10.138,-7.200,-14.200,-6.200,-0.539,2.906,-0.094
2019-05-26-01:45:41.133392,0.285,-0.172,10.129,-7.400,-13.500,-6.600,-0.625,2.672,-0.070
2019-05-26-01:45:41.243389,0.282,-0.136,10.138,-7.800,-14.600,-6.000,-1.180,2.484,-0.102
2019-05-26-01:45:41.352972,0.278,-0.139,10.129,-7.100,-14.600,-3.800,-1.242,2.836,0.055
2019-05-26-01:45:41.462800,0.292,-0.167,10.126,-7.700,-14.400,-5.900,-0.539,2.805,-0.227
2019-05-26-01:45:41.574589,0.292,-0.141,10.122,-7.300,-13.400,-5.500,-1.164,2.633,0.008
2019-05-26-01:45:41.684224,0.309,-0.163,10.126,-6.400,-13.400,-6.000,-0.969,2.711,-0.344
2019-05-26-01:45:41.793865,0.301,-0.167,10.124,-7.300,-14.100,-5.900,-1.188,2.797,-0.227
2019-05-26-01:45:41.903423,0.290,-0.158,10.131,-6.800,-14.300,-5.600,-0.688,3.000,-0.117
2019-05-26-01:45:42.013050,0.301,-0.163,10.124,-7.600,-13.700,-6.200,-1.070,2.453,0.125
2019-05-26-01:45:42.122998,0.297,-0.148,10.119,-7.400,-12.900,-5.000,-0.992,2.484,-0.078
2019-05-26-01:45:42.232673,0.297,-0.170,10.122,-6.900,-13.400,-5.500,-0.609,2.742,-0.305
2019-05-26-01:45:42.342296,0.299,-0.153,10.129,-7.700,-14.000,-5.900,-0.891,2.766,-0.141
2019-05-26-01:45:42.452302,0.294,-0.153,10.134,-8.100,-13.900,-6.300,-1.203,2.695,-0.008
2019-05-26-01:45:42.562270,0.301,-0.163,10.117,-6.600,-13.200,-5.500,-1.055,2.836,0.172
