Time,Acceleration X (m/s^2),Acceleration Y (m/s^2),Acceleration Z (m/s^2),Magnetometer X (uTesla), Magnetometer Y (uTesla)  , Magnetometer Z (uTesla),Gyroscope X (radians/s), Gyroscope Y (radians/s), Gyroscope Z (radians/s)
2019-05-26-01:47:01.938939,0.297,-0.160,10.126,-5.800,-12.600,-3.700,-0.805,2.812,0.078
2019-05-26-01:47:02.044782,0.292,-0.153,10.150,-5.200,-11.700,-5.300,-1.617,2.781,-0.227
2019-05-26-01:47:02.150383,0.292,-0.163,10.138,-6.100,-12.900,-5.100,-1.430,2.852,-0.180
2019-05-26-01:47:02.256072,0.285,-0.156,10.102,-5.700,-12.200,-5.700,-1.086,2.883,-0.055
2019-05-26-01:47:02.364965,0.287,-0.151,10.129,-6.300,-13.300,-5.500,-0.953,3.031,0.039
2019-05-26-01:47:02.474617,0.301,-0.153,10.110,-6.200,-12.800,-3.900,-1.211,2.820,-0.188
2019-05-26-01:47:02.584333,0.287,-0.151,10.124,-6.300,-11.900,-4.300,-1.062,2.625,-0.047
2019-05-26-01:47:02.694206,0.280,-0.156,10.098,-6.000,-12.200,-4.400,-1.016,2.820,-0.164
2019-05-26-01:47:02.803862,0.301,-0.156,10.141,-5.900,-12.200,-5.000,-0.828,2.852,-0.227
2019-05-26-01:47:02.913686,0.290,-0.165,10.134,-6.800,-12.200,-4.000,-0.562,2.906,-0.234
2019-05-26-01:47:03.023773,0.290,-0.163,10.124,-5.300,-13.500,-4.100,-0.969,2.820,-0.031
2019-05-26-01:47:03.133449,0.292,-0.144,10.150,-6.700,-11.600,-4.900,-1.047,2.742,-0.023
2019-05-26-01:47:03.243031,0.297,-0.153,10.114,-5.400,-12.600,-5.500,-0.789,2.812,0.078
2019-05-26-01:47:03.352607,0.275,-0.144,10.124,-6.600,-11.900,-4.100,-1.203,2.648,-0.008
2019-05-26-01:47:03.462274,0.294,-0.156,10.124,-5.600,-12.800,-4.600,-1.047,2.672,-0.078
2019-05-26-01:47:03.572221,0.294,-0.165,10.129,-6.000,-12.600,-5.100,-0.984,2.797,-0.188
2019-05-26-01:47:03.681926,0.287,-0.148,10.102,-6.300,-12.100,-4.000,-1.109,2.547,-0.367
2019-05-26-01:47:03.791456,0.282,-0.158,10.102,-5.900,-12.500,-2.300,-1.086,2.867,-0.117
2019-05-26-01:47:03.901326,0.290,-0.134,10.110,-6.700,-12.200,-3.400,-1.094,2.719,-0.180
2019-05-26-01:47:04.010948,0.290,-0.151,10.119,-5.300,-12.400,-5.300,-0.875,2.695,-0.070
2019-05-26-01:47:04.120678,0.294,-0.146,10.117,-6.500,-11.800,-3.700,-0.578,2.570,-0.078
2019-05-26-01:47:04.230645,0.294,-0.153,10.100,-5.800,-12.800,-4.800,-1.180,2.930,-0.023
2019-05-26-01:47:04.340349,0.299,-0.148,10.131,-5.800,-12.000,-4.100,-1.250,2.625,-0.227
2019-05-26-01:47:04.450064,0.299,-0.160,10.138,-5.000,-13.700,-4.000,-1.258,2.797,-0.250
2019-05-26-01:47:04.559776,0.287,-0.153,10.153,-5.300,-13.200,-5.000,-1.266,2.562,-0.297
2019-05-26-01:47:04.669367,0.292,-0.153,10.102,-5.900,-12.800,-5.400,-0.938,2.656,-0.234
2019-05-26-01:47:04.778891,0.287,-0.148,10.119,-5.600,-12.700,-4.200,-1.086,2.828,-0.047
2019-05-26-01:47:04.888478,0.287,-0.153,10.119,-5.300,-12.500,-6.700,-1.070,2.547,-0.188
2019-05-26-01:47:04.998004,0.285,-0.153,10.141,-6.400,-11.800,-3.700,-1.180,2.781,-0.125
2019-05-26-01:47:05.107973,0.304,-0.139,10.110,-5.700,-12.100,-5.600,-1.094,2.727,0.133
2019-05-26-01:47:05.217668,0.287,-0.141,10.102,-4.800,-11.400,-5.100,-0.977,2.734,0.039
2019-05-26-01:47:05.327328,0.297,-0.158,10.122,-6.100,-12.200,-4.500,-1.062,2.734,-0.023
2019-05-26-01:47:05.437163,0.290,-0.151,10.119,-5.700,-13.500,-5.100,-1.156,2.656,-0.227
2019-05-26-01:47:05.546901,0.294,-0.163,10.112,-5.300,-12.100,-5.600,-1.086,2.648,-0.180
2019-05-26-01:47:05.656517,0.299,-0.160,10.117,-6.200,-12.200,-5.100,-0.938,2.656,-0.078
2019-05-26-01:47:05.766161,0.304,-0.153,10.119,-4.600,-12.200,-5.300,-1.281,2.539,-0.070
2019-05-26-01:47:05.875800,0.285,-0.146,10.117,-5.300,-13.000,-6.100,-1.305,2.711,-0.047
2019-05-26-01:47:05.985351,0.285,-0.148,10.129,-6.200,-12.400,-4.900,-1.078,2.500,0.055
2019-05-26-01:47:06.095061,0.294,-0.141,10.122,-4.400,-12.400,-3.300,-0.922,2.867,-0.094
2019-05-26-01:47:06.204678,0.287,-0.167,10.119,-5.100,-13.100,-5.600,-0.945,2.477,-0.070
2019-05-26-01:47:06.314611,0.285,-0.170,10.134,-6.400,-11.700,-5.300,-0.766,2.484,-0.078
2019-05-26-01:47:06.424258,0.304,-0.163,10.122,-5.300,-11.400,-4.800,-1.180,2.680,-0.227
2019-05-26-01:47:06.534005,0.294,-0.153,10.105,-5.300,-11.600,-4.700,-1.047,2.766,-0.344
2019-05-26-01:47:06.644074,0.297,-0.146,10.131,-5.400,-12.800,-4.500,-1.109,2.844,-0.477
2019-05-26-01:47:06.755596,0.309,-0.134,10.124,-5.500,-12.000,-4.100,-0.969,2.828,-0.367
2019-05-26-01:47:06.865175,0.294,-0.156,10.129,-5.300,-12.700,-4.500,-1.250,2.609,-0.023
2019-05-26-01:47:06.974749,0.297,-0.151,10.143,-6.000,-12.600,-4.600,-1.016,2.734,-0.250
2019-05-26-01:47:07.084672,0.285,-0.167,10.141,-5.400,-12.800,-4.600,-0.938,2.711,-0.148
2019-05-26-01:47:07.194276,0.290,-0.167,10.117,-6.500,-12.400,-4.900,-1.070,2.570,-0.008
2019-05-26-01:47:07.303877,0.301,-0.151,10.136,-5.600,-13.000,-4.900,-1.109,2.562,-0.055
2019-05-26-01:47:07.416054,0.294,-0.165,10.112,-5.800,-12.500,-3.900,-0.922,2.406,0.031
2019-05-26-01:47:07.525914,0.306,-0.153,10.122,-6.500,-12.600,-5.600,-1.070,2.633,-0.125
2019-05-26-01:47:07.635718,0.299,-0.141,10.119,-5.600,-12.300,-4.800,-0.461,3.062,-0.070
2019-05-26-01:47:07.745288,0.297,-0.158,10.126,-5.600,-12.400,-4.200,-0.727,2.719,-0.383
2019-05-26-01:47:07.855194,0.292,-0.139,10.136,-6.100,-11.300,-3.200,-0.891,2.758,-0.211
2019-05-26-01:47:07.965061,0.280,-0.148,10.136,-4.900,-12.500,-4.000,-0.953,3.016,-0.188
2019-05-26-01:47:08.074849,0.285,-0.148,10.136,-6.600,-12.400,-3.700,-1.062,2.711,-0.180
2019-05-26-01:47:08.184468,0.404,-0.086,10.179,-5.000,-13.200,-4.100,-1.008,2.594,-0.070
2019-05-26-01:47:08.294223,0.306,-0.158,10.186,-5.500,-12.100,-4.900,-0.969,2.781,-0.188
2019-05-26-01:47:08.403894,0.280,-0.163,10.119,-5.300,-12.300,-4.300,-1.227,2.781,-0.188
2019-05-26-01:47:08.513531,0.309,-0.146,10.110,-6.200,-11.600,-4.400,-0.938,2.656,-0.320
2019-05-26-01:47:08.625830,0.304,-0.148,10.124,-5.300,-12.400,-5.600,-1.117,2.805,-0.125
2019-05-26-01:47:08.735518,0.287,-0.151,10.136,-5.700,-12.500,-4.100,-0.984,2.680,0.008
2019-05-26-01:47:08.845042,0.290,-0.158,10.119,-6.600,-13.500,-5.400,-1.352,2.828,-0.344
2019-05-26-01:47:08.954621,0.290,-0.163,10.110,-5.600,-11.300,-6.000,-1.164,2.781,-0.031
2019-05-26-01:47:09.064506,0.297,-0.156,10.114,-5.400,-13.000,-5.700,-0.969,2.758,-0.070
2019-05-26-01:47:09.174135,0.294,-0.129,10.134,-6.400,-12.000,-3.100,-0.969,2.625,-0.102
2019-05-26-01:47:09.283774,0.285,-0.144,10.114,-6.200,-13.200,-4.600,-0.852,2.820,-0.188
2019-05-26-01:47:09.393289,0.292,-0.153,10.131,-5.800,-12.900,-4.400,-1.094,2.625,0.102
2019-05-26-01:47:09.502903,0.287,-0.167,10.124,-6.100,-13.400,-5.500,-0.586,2.672,-0.055
2019-05-26-01:47:09.612705,0.290,-0.156,10.117,-5.900,-11.900,-3.900,-0.969,2.664,0.086
2019-05-26-01:47:09.722296,0.292,-0.153,10.112,-4.900,-13.700,-5.000,-0.672,2.695,-0.250
2019-05-26-01:47:09.832261,0.294,-0.144,10.124,-6.500,-12.000,-4.000,-1.133,2.758,-0.297
2019-05-26-01:47:09.941945,0.306,-0.165,10.126,-4.600,-13.600,-5.900,-1.070,2.719,-0.273
2019-05-26-01:47:10.051681,0.287,-0.160,10.124,-5.300,-12.400,-4.000,-0.844,2.586,-0.273
2019-05-26-01:47:10.161267,0.285,-0.163,10.129,-5.100,-13.600,-4.100,-0.961,2.375,-0.031
2019-05-26-01:47:10.271230,0.287,-0.165,10.112,-4.900,-14.100,-6.000,-1.180,2.594,-0.047
2019-05-26-01:47:10.380845,0.285,-0.165,10.117,-5.500,-11.400,-3.800,-0.859,2.688,0.086
2019-05-26-01:47:10.490493,0.301,-0.146,10.122,-6.400,-13.200,-4.800,-0.820,2.648,-0.047
2019-05-26-01:47:10.600426,0.309,-0.156,10.114,-6.100,-10.900,-5.400,-0.773,2.844,0.109
2019-05-26-01:47:10.710217,0.287,-0.156,10.131,-6.000,-13.700,-5.100,-0.938,2.828,-0.227
2019-05-26-01:47:10.819789,0.287,-0.165,10.136,-6.800,-12.200,-3.900,-1.227,2.594,-0.102
2019-05-26-01:47:10.929319,0.292,-0.158,10.119,-6.200,-13.400,-4.500,-0.805,2.508,-0.031
2019-05-26-01:47:11.039189,0.299,-0.134,10.117,-6.200,-12.500,-2.600,-0.867,2.711,-0.188
2019-05-26-01:47:11.148835,0.287,-0.153,10.110,-6.100,-12.900,-4.800,-1.062,2.891,-0.258
2019-05-26-01:47:11.258643,0.299,-0.160,10.124,-5.000,-11.900,-3.500,-0.805,2.578,0.055
2019-05-26-01:47:11.368363,0.287,-0.156,10.110,-5.400,-13.300,-6.200,-0.633,2.719,-0.070
2019-05-26-01:47:11.478385,0.297,-0.136,10.165,-4.600,-12.400,-5.700,-1.070,2.672,-0.055
2019-05-26-01:47:11.588284,0.304,-0.110,10.093,-5.300,-13.400,-6.800,-1.094,2.602,0.125
2019-05-26-01:47:11.697934,0.299,-0.160,10.107,-5.600,-12.200,-4.600,-0.914,2.820,-0.211
2019-05-26-01:47:11.807532,0.285,-0.156,10.119,-5.500,-13.000,-4.200,-1.039,2.742,-0.070
2019-05-26-01:47:11.917064,0.287,-0.146,10.126,-5.800,-11.300,-4.100,-1.016,2.844,-0.117
2019-05-26-01:47:12.026701,0.297,-0.165,10.134,-5.600,-12.500,-2.900,-1.141,2.836,0.016
2019-05-26-01:47:12.136423,0.297,-0.160,10.129,-6.500,-11.100,-4.700,-1.008,2.797,-0.281
2019-05-26-01:47:12.246523,0.292,-0.158,10.141,-5.200,-11.400,-4.900,-0.828,2.742,-0.117
2019-05-26-01:47:12.356270,0.294,-0.141,10.098,-5.100,-12.000,-4.200,-1.148,2.789,0.102
2019-05-26-01:47:12.465946,0.287,-0.146,10.112,-6.300,-12.900,-4.100,-0.703,2.680,-0.391
2019-05-26-01:47:12.575744,0.287,-0.165,10.126,-5.400,-12.300,-3.000,-0.961,2.867,-0.141
2019-05-26-01:47:12.685825,0.290,-0.139,10.136,-5.400,-11.900,-4.400,-0.938,2.781,-0.008
2019-05-26-01:47:12.795505,0.285,-0.160,10.110,-5.200,-12.100,-4.300,-1.031,2.836,0.172
2019-05-26-01:47:12.905074,0.299,-0.163,10.129,-5.000,-12.600,-3.800,-1.156,2.422,-0.008
2019-05-26-01:47:13.014952,0.280,-0.139,10.081,-5.800,-11.400,-5.200,-0.938,2.547,-0.141
2019-05-26-01:47:13.124776,0.299,-0.175,10.091,-5.300,-13.800,-3.800,-0.531,2.992,-0.148
2019-05-26-01:47:13.234394,0.273,-0.134,10.138,-6.000,-11.800,-4.800,-0.961,2.805,-0.125
2019-05-26-01:47:13.343995,0.297,-0.167,10.117,-5.800,-12.900,-5.900,-0.805,2.766,-0.234
2019-05-26-01:47:13.454028,0.297,-0.156,10.122,-6.100,-12.100,-4.400,-1.203,3.055,0.109
2019-05-26-01:47:13.563883,0.290,-0.158,10.129,-5.500,-12.500,-6.000,-0.922,2.969,0.055
2019-05-26-01:47:13.673470,0.290,-0.156,10.114,-5.500,-12.700,-4.000,-1.039,2.656,-0.211
2019-05-26-01:47:13.783058,0.280,-0.146,10.131,-6.100,-12.500,-4.500,-0.812,2.906,0.062
2019-05-26-01:47:13.892927,0.290,-0.151,10.124,-5.800,-12.500,-4.600,-1.094,2.961,0.109
2019-05-26-01:47:14.002545,0.290,-0.163,10.131,-5.400,-13.100,-4.800,-0.938,2.844,-0.125
2019-05-26-01:47:14.112350,0.287,-0.153,10.131,-6.300,-11.300,-3.300,-0.609,2.820,-0.031
2019-05-26-01:47:14.222037,0.299,-0.160,10.107,-6.200,-14.100,-5.800,-0.766,2.883,-0.305
2019-05-26-01:47:14.331831,0.301,-0.165,10.117,-5.900,-12.200,-3.600,-1.055,2.750,0.055
2019-05-26-01:47:14.441502,0.290,-0.141,10.124,-5.700,-12.600,-4.700,-1.008,2.969,-0.055
2019-05-26-01:47:14.551250,0.280,-0.146,10.107,-5.600,-12.500,-3.700,-0.945,2.766,-0.023
2019-05-26-01:47:14.661168,0.292,-0.153,10.124,-6.400,-13.100,-5.900,-0.898,2.547,-0.102
2019-05-26-01:47:14.770733,0.292,-0.156,10.117,-6.600,-14.100,-5.600,-1.086,2.672,-0.047
2019-05-26-01:47:14.880300,0.297,-0.141,10.114,-5.800,-11.300,-5.700,-1.133,2.523,-0.078
2019-05-26-01:47:14.989871,0.297,-0.148,10.119,-6.300,-12.600,-4.100,-0.750,2.672,-0.070
2019-05-26-01:47:15.109215,0.294,-0.139,10.117,-5.100,-12.900,-4.800,-0.945,2.648,0.062
2019-05-26-01:47:15.219152,0.299,-0.153,10.119,-5.800,-11.100,-3.200,-0.742,2.570,-0.180
2019-05-26-01:47:15.328848,0.287,-0.151,10.129,-6.300,-13.400,-4.100,-1.148,2.750,0.031
2019-05-26-01:47:15.438590,0.299,-0.156,10.098,-5.700,-12.700,-3.600,-0.758,2.898,0.031
2019-05-26-01:47:15.548256,0.297,-0.153,10.117,-6.500,-12.700,-5.500,-1.070,2.930,-0.148
2019-05-26-01:47:15.657874,0.294,-0.156,10.129,-6.200,-12.600,-5.500,-0.969,2.781,-0.047
2019-05-26-01:47:15.767396,0.301,-0.141,10.122,-5.300,-12.000,-4.300,-0.805,2.734,0.055
2019-05-26-01:47:15.877260,0.297,-0.160,10.134,-5.800,-12.100,-4.500,-1.141,2.742,-0.141
2019-05-26-01:47:15.986999,0.299,-0.148,10.129,-5.500,-11.500,-5.100,-1.070,2.633,-0.250
2019-05-26-01:47:16.096819,0.290,-0.153,10.100,-5.700,-11.900,-4.300,-1.117,2.680,-0.031
2019-05-26-01:47:16.206412,0.287,-0.151,10.114,-5.500,-11.900,-5.200,-1.148,2.727,0.078
2019-05-26-01:47:16.316426,0.278,-0.158,10.138,-5.700,-12.100,-4.300,-1.266,2.828,-0.234
2019-05-26-01:47:16.426140,0.282,-0.153,10.117,-5.500,-11.800,-5.200,-0.867,2.797,-0.055
2019-05-26-01:47:16.535824,0.285,-0.156,10.124,-5.800,-12.300,-4.500,-0.898,2.906,-0.102
2019-05-26-01:47:16.645525,0.290,-0.158,10.114,-5.900,-11.400,-3.300,-1.312,2.586,-0.320
2019-05-26-01:47:16.755066,0.294,-0.170,10.105,-5.800,-11.700,-3.500,-1.094,2.797,-0.281
2019-05-26-01:47:16.864710,0.299,-0.153,10.124,-5.400,-13.400,-5.200,-1.016,2.656,-0.070
2019-05-26-01:47:16.974308,0.301,-0.144,10.119,-5.900,-11.900,-4.900,-0.492,2.758,0.109
2019-05-26-01:47:17.084271,0.285,-0.141,10.122,-5.100,-12.400,-4.400,-0.703,2.914,-0.102
2019-05-26-01:47:17.193931,0.290,-0.167,10.131,-5.900,-11.000,-5.200,-0.805,2.914,-0.055
2019-05-26-01:47:17.303612,0.299,-0.144,10.138,-5.700,-12.300,-4.200,-0.914,2.484,-0.094
2019-05-26-01:47:17.413452,0.306,-0.153,10.124,-6.500,-12.000,-4.400,-1.062,2.820,-0.070
2019-05-26-01:47:17.523587,0.299,-0.146,10.134,-6.000,-13.000,-3.600,-0.727,2.570,-0.164
2019-05-26-01:47:17.633342,0.285,-0.158,10.126,-5.900,-11.200,-3.400,-1.062,2.844,-0.227
2019-05-26-01:47:17.742914,0.294,-0.151,10.138,-6.000,-12.600,-5.000,-1.180,2.547,-0.070
2019-05-26-01:47:17.852400,0.301,-0.167,10.105,-7.300,-10.700,-3.300,-1.117,2.742,-0.320
2019-05-26-01:47:17.962278,0.287,-0.134,10.093,-5.100,-13.500,-4.200,-0.945,2.594,-0.414
2019-05-26-01:47:18.072104,0.290,-0.151,10.150,-6.200,-11.200,-3.200,-0.797,2.586,-0.250
2019-05-26-01:47:18.181687,0.297,-0.156,10.124,-5.700,-13.200,-4.200,-1.203,2.992,0.133
2019-05-26-01:47:18.291667,0.299,-0.148,10.112,-6.500,-12.100,-3.300,-0.898,2.672,-0.164
2019-05-26-01:47:18.401282,0.306,-0.165,10.117,-7.700,-13.600,-4.900,-0.797,2.953,-0.227
2019-05-26-01:47:18.510901,0.290,-0.151,10.119,-7.100,-12.000,-3.000,-1.289,2.906,-0.148
2019-05-26-01:47:18.620639,0.292,-0.153,10.150,-6.000,-14.500,-4.300,-0.969,2.594,-0.250
2019-05-26-01:47:18.730621,0.282,-0.151,10.143,-6.400,-11.700,-3.800,-1.047,2.781,-0.250
2019-05-26-01:47:18.840318,0.280,-0.163,10.131,-6.300,-13.700,-4.700,-0.984,2.797,-0.008
2019-05-26-01:47:18.949915,0.273,-0.148,10.126,-5.200,-12.700,-3.900,-0.898,2.695,-0.102
2019-05-26-01:47:19.059598,0.306,-0.148,10.114,-6.500,-11.300,-3.700,-1.047,2.680,-0.148
2019-05-26-01:47:19.169171,0.287,-0.141,10.126,-5.500,-13.000,-4.000,-0.703,2.711,-0.070
2019-05-26-01:47:19.278706,0.282,-0.134,10.126,-7.400,-11.600,-3.200,-1.133,2.680,-0.180
2019-05-26-01:47:19.388234,0.285,-0.158,10.117,-6.200,-12.800,-4.600,-0.922,2.672,-0.047
2019-05-26-01:47:19.498191,0.282,-0.158,10.110,-6.200,-12.400,-2.800,-0.602,2.953,-0.227
2019-05-26-01:47:19.608027,0.280,-0.163,10.119,-5.500,-12.900,-4.100,-0.602,2.758,-0.148
2019-05-26-01:47:19.717615,0.299,-0.160,10.105,-6.100,-11.700,-3.100,-0.945,2.672,-0.164
2019-05-26-01:47:19.827117,0.287,-0.160,10.131,-5.500,-13.200,-3.600,-0.891,2.820,-0.094
2019-05-26-01:47:19.937008,0.280,-0.158,10.122,-5.900,-12.900,-4.200,-0.922,2.719,-0.148
2019-05-26-01:47:20.046773,0.304,-0.148,10.129,-5.600,-12.900,-4.600,-0.719,2.758,-0.055
2019-05-26-01:47:20.156384,0.299,-0.144,10.112,-5.700,-12.800,-4.900,-1.117,2.609,-0.297
2019-05-26-01:47:20.266106,0.290,-0.156,10.129,-6.600,-12.100,-5.100,-1.039,2.586,-0.031
2019-05-26-01:47:20.375786,0.299,-0.165,10.114,-7.000,-13.000,-4.600,-1.180,2.742,-0.102
2019-05-26-01:47:20.485429,0.290,-0.153,10.131,-6.100,-12.500,-4.500,-1.258,2.906,-0.234
2019-05-26-01:47:20.595160,0.287,-0.156,10.102,-6.200,-13.700,-4.200,-0.875,2.633,-0.188
2019-05-26-01:47:20.705139,0.280,-0.148,10.141,-6.300,-13.100,-4.900,-0.961,2.547,-0.047
2019-05-26-01:47:20.814725,0.285,-0.167,10.114,-5.700,-13.100,-4.700,-1.211,2.672,-0.320
2019-05-26-01:47:20.924222,0.290,-0.153,10.122,-6.200,-12.100,-4.500,-0.414,2.625,-0.148
2019-05-26-01:47:21.033946,0.280,-0.160,10.124,-6.500,-12.100,-4.700,-1.016,2.680,-0.047
2019-05-26-01:47:21.144037,0.304,-0.141,10.141,-5.300,-13.000,-4.100,-0.945,2.883,-0.094
2019-05-26-01:47:21.253713,0.282,-0.151,10.107,-5.900,-12.000,-6.000,-0.930,2.820,0.039
2019-05-26-01:47:21.363217,0.306,-0.153,10.122,-6.100,-12.900,-5.900,-0.898,2.727,0.172
2019-05-26-01:47:21.472802,0.280,-0.158,10.141,-4.700,-12.300,-3.300,-0.891,2.844,-0.148
2019-05-26-01:47:21.582510,0.299,-0.153,10.114,-4.500,-12.900,-5.200,-1.109,2.883,-0.094
2019-05-26-01:47:21.692151,0.292,-0.158,10.129,-6.200,-12.100,-5.000,-1.180,2.742,-0.250
2019-05-26-01:47:21.801674,0.290,-0.158,10.134,-5.000,-13.200,-5.100,-1.188,2.648,-0.188
2019-05-26-01:47:21.911664,0.285,-0.165,10.117,-5.700,-11.300,-3.800,-1.133,2.609,-0.055
2019-05-26-01:47:22.021610,0.292,-0.151,10.119,-7.200,-12.900,-4.800,-1.000,2.531,0.109
2019-05-26-01:47:22.131491,0.297,-0.148,10.126,-5.600,-11.300,-2.700,-0.961,2.695,-0.211
2019-05-26-01:47:22.247317,0.306,-0.148,10.124,-5.300,-13.300,-4.600,-0.945,2.633,-0.031
2019-05-26-01:47:22.357165,0.294,-0.158,10.122,-5.700,-13.000,-4.800,-0.898,2.719,-0.070
2019-05-26-01:47:22.466792,0.294,-0.156,10.107,-5.700,-12.900,-4.500,-0.938,2.805,-0.258
2019-05-26-01:47:22.576745,0.278,-0.146,10.124,-6.600,-11.500,-4.600,-0.992,2.703,0.125
2019-05-26-01:47:22.686377,0.285,-0.153,10.124,-5.100,-13.100,-3.900,-1.117,2.656,-0.344
2019-05-26-01:47:22.795994,0.292,-0.160,10.112,-6.800,-11.800,-4.300,-0.969,2.586,-0.141
2019-05-26-01:47:22.905613,0.290,-0.158,10.114,-5.400,-13.500,-4.500,-0.969,2.820,-0.055
2019-05-26-01:47:23.015464,0.287,-0.132,10.131,-6.500,-11.900,-3.700,-0.820,2.805,-0.023
2019-05-26-01:47:23.125486,0.299,-0.153,10.126,-5.500,-13.000,-4.100,-1.336,2.523,-0.203
2019-05-26-01:47:23.235101,0.299,-0.153,10.134,-6.100,-10.100,-3.700,-1.070,2.773,0.039
2019-05-26-01:47:23.344800,0.282,-0.151,10.126,-4.800,-12.800,-4.900,-0.727,2.797,-0.125
2019-05-26-01:47:23.459097,0.292,-0.146,10.122,-5.800,-12.100,-5.400,-0.961,2.680,-0.117
2019-05-26-01:47:23.570824,0.297,-0.158,10.110,-5.700,-12.200,-4.200,-1.414,2.664,0.062
2019-05-26-01:47:23.680527,0.278,-0.139,10.143,-5.600,-12.000,-3.700,-1.008,2.719,-0.094
2019-05-26-01:47:23.790146,0.285,-0.163,10.126,-6.100,-12.200,-4.600,-1.266,2.930,0.016
2019-05-26-01:47:23.899780,0.299,-0.160,10.107,-6.000,-11.300,-4.400,-0.719,2.758,-0.125
2019-05-26-01:47:24.009305,0.282,-0.144,10.138,-5.400,-12.600,-3.800,-0.875,2.680,-0.203
2019-05-26-01:47:24.119078,0.301,-0.160,10.112,-5.900,-12.200,-3.900,-0.812,2.602,0.031
2019-05-26-01:47:24.228722,0.297,-0.129,10.146,-5.800,-11.800,-4.200,-1.117,2.453,0.031
2019-05-26-01:47:24.338694,0.287,-0.153,10.136,-5.800,-13.400,-4.600,-1.180,2.797,-0.094
2019-05-26-01:47:24.448487,0.287,-0.158,10.131,-6.600,-13.200,-4.000,-1.047,2.828,-0.203
2019-05-26-01:47:24.558190,0.275,-0.151,10.126,-5.900,-12.000,-4.600,-1.094,2.828,-0.211
2019-05-26-01:47:24.668131,0.282,-0.153,10.119,-6.100,-11.800,-4.300,-0.977,2.820,0.102
2019-05-26-01:47:24.777742,0.294,-0.153,10.110,-6.000,-11.600,-5.000,-0.938,2.656,-0.148
2019-05-26-01:47:24.887229,0.311,-0.158,10.138,-5.900,-11.400,-4.800,-1.008,2.797,-0.188
2019-05-26-01:47:24.996789,0.304,-0.151,10.138,-6.100,-12.200,-4.000,-0.875,2.656,-0.148
2019-05-26-01:47:25.106493,0.299,-0.146,10.126,-5.800,-11.900,-4.100,-1.016,2.797,-0.078
2019-05-26-01:47:25.216254,0.290,-0.165,10.124,-6.200,-13.600,-4.800,-1.203,2.680,-0.078
2019-05-26-01:47:25.325783,0.304,-0.151,10.131,-5.500,-12.300,-4.900,-1.281,2.719,-0.047
2019-05-26-01:47:25.435371,0.287,-0.146,10.114,-4.600,-12.000,-5.600,-0.859,2.453,0.031
2019-05-26-01:47:25.545267,0.294,-0.151,10.117,-6.000,-11.800,-4.300,-0.797,2.656,-0.367
2019-05-26-01:47:25.654921,0.282,-0.144,10.117,-5.800,-12.600,-6.400,-1.016,2.797,-0.078
2019-05-26-01:47:25.764454,0.285,-0.156,10.102,-6.200,-11.800,-5.600,-1.086,2.766,-0.250
2019-05-26-01:47:25.874385,0.287,-0.163,10.107,-6.400,-11.900,-4.300,-0.578,2.797,-0.164
2019-05-26-01:47:25.984313,0.290,-0.156,10.131,-5.500,-14.000,-5.000,-0.641,2.727,0.055
2019-05-26-01:47:26.094121,0.294,-0.153,10.126,-6.800,-10.800,-5.000,-0.914,2.797,-0.148
2019-05-26-01:47:26.203792,0.285,-0.158,10.114,-4.900,-13.500,-4.200,-0.984,2.828,-0.234
2019-05-26-01:47:26.313418,0.290,-0.153,10.129,-6.200,-11.800,-2.800,-0.828,2.758,-0.148
2019-05-26-01:47:26.423039,0.294,-0.139,10.117,-5.700,-12.200,-4.500,-1.023,2.586,-0.281
2019-05-26-01:47:26.533036,0.287,-0.156,10.129,-5.800,-11.900,-3.100,-1.227,2.633,-0.125
2019-05-26-01:47:26.642735,0.287,-0.156,10.126,-4.300,-11.900,-4.600,-1.422,2.711,-0.320
2019-05-26-01:47:26.752717,0.282,-0.148,10.112,-6.400,-11.400,-3.900,-0.984,2.883,-0.117
2019-05-26-01:47:26.862372,0.290,-0.141,10.126,-6.200,-13.600,-5.600,-0.852,2.719,-0.078
2019-05-26-01:47:26.972074,0.292,-0.151,10.129,-5.500,-11.100,-4.400,-0.891,2.938,0.008
2019-05-26-01:47:27.082262,0.287,-0.148,10.124,-6.000,-13.000,-3.500,-1.180,2.930,-0.320
2019-05-26-01:47:27.192001,0.297,-0.146,10.122,-6.700,-12.000,-3.900,-1.117,2.742,-0.055
2019-05-26-01:47:27.301651,0.287,-0.141,10.119,-5.800,-12.700,-4.200,-0.758,2.641,0.031
2019-05-26-01:47:27.411450,0.299,-0.167,10.131,-6.100,-10.400,-5.000,-0.984,2.656,-0.328
2019-05-26-01:47:27.521126,0.297,-0.148,10.117,-6.000,-12.500,-5.600,-1.211,2.586,-0.117
2019-05-26-01:47:27.630951,0.292,-0.160,10.107,-6.000,-12.000,-3.900,-1.250,2.648,-0.273
2019-05-26-01:47:27.740832,0.299,-0.146,10.146,-5.700,-12.700,-4.100,-1.203,2.375,-0.125
2019-05-26-01:47:27.850481,0.301,-0.156,10.107,-5.900,-11.600,-5.300,-0.914,2.781,-0.297
2019-05-26-01:47:27.960418,0.287,-0.148,10.150,-5.200,-11.900,-3.900,-0.977,3.055,-0.008
2019-05-26-01:47:28.070254,0.285,-0.158,10.131,-5.300,-13.000,-3.700,-1.133,2.539,-0.023
2019-05-26-01:47:28.179929,0.280,-0.156,10.124,-5.000,-11.900,-5.300,-1.141,2.883,-0.367
2019-05-26-01:47:28.289930,0.294,-0.148,10.119,-6.300,-12.400,-4.100,-0.820,2.570,-0.102
2019-05-26-01:47:28.399578,0.292,-0.151,10.112,-5.900,-12.200,-5.300,-0.844,2.484,-0.359
2019-05-26-01:47:28.509254,0.292,-0.153,10.146,-6.000,-11.300,-3.900,-0.727,2.797,-0.117
2019-05-26-01:47:28.619042,0.301,-0.153,10.138,-5.400,-13.000,-3.500,-0.805,2.883,-0.094
2019-05-26-01:47:28.728752,0.278,-0.156,10.141,-6.000,-12.400,-4.400,-0.922,2.672,0.008
2019-05-26-01:47:28.838384,0.282,-0.146,10.110,-5.600,-11.700,-5.000,-1.344,2.703,0.016
2019-05-26-01:47:28.948018,0.294,-0.134,10.143,-6.700,-12.100,-3.100,-0.781,2.820,0.102
2019-05-26-01:47:29.057931,0.299,-0.160,10.122,-5.800,-12.400,-4.300,-1.352,2.719,-0.070
2019-05-26-01:47:29.167988,0.292,-0.165,10.126,-5.900,-11.600,-2.100,-1.203,2.797,-0.148
2019-05-26-01:47:29.277702,0.301,-0.160,10.112,-5.800,-12.900,-4.800,-1.086,2.758,-0.164
2019-05-26-01:47:29.387561,0.301,-0.151,10.119,-5.200,-11.700,-2.100,-1.016,2.648,-0.117
2019-05-26-01:47:29.497593,0.297,-0.144,10.117,-6.700,-14.400,-5.400,-0.625,2.711,-0.055
2019-05-26-01:47:29.607431,0.287,-0.160,10.136,-7.400,-12.100,-4.600,-1.070,2.906,-0.234
2019-05-26-01:47:29.717079,0.306,-0.151,10.129,-5.200,-13.400,-5.700,-0.773,2.516,0.148
2019-05-26-01:47:29.826770,0.299,-0.170,10.126,-6.700,-11.100,-4.100,-1.117,2.594,-0.078
2019-05-26-01:47:29.936352,0.282,-0.156,10.119,-5.700,-13.900,-5.800,-0.945,2.797,-0.117
2019-05-26-01:47:30.046246,0.290,-0.153,10.126,-6.200,-12.100,-4.600,-1.227,2.570,-0.211
2019-05-26-01:47:30.155928,0.287,-0.163,10.126,-5.300,-13.200,-4.100,-1.211,2.500,-0.250
2019-05-26-01:47:30.266215,0.290,-0.156,10.119,-6.200,-12.000,-3.600,-0.898,2.609,-0.227
2019-05-26-01:47:30.375978,0.292,-0.144,10.124,-5.700,-13.500,-5.500,-1.086,2.852,-0.227
2019-05-26-01:47:30.485816,0.304,-0.153,10.112,-6.400,-12.000,-4.800,-0.922,2.633,-0.078
2019-05-26-01:47:30.595676,0.301,-0.139,10.124,-4.700,-13.500,-5.400,-1.117,2.438,-0.258
2019-05-26-01:47:30.705757,0.297,-0.165,10.110,-5.900,-12.200,-3.100,-1.070,2.852,-0.281
2019-05-26-01:47:30.815421,0.282,-0.136,10.117,-5.400,-11.700,-4.300,-0.852,2.781,-0.055
2019-05-26-01:47:30.925029,0.285,-0.156,10.136,-6.000,-12.400,-4.300,-1.250,2.523,-0.125
2019-05-26-01:47:31.034746,0.282,-0.177,10.126,-5.600,-11.700,-4.000,-1.180,2.672,-0.047
2019-05-26-01:47:31.144409,0.292,-0.151,10.114,-5.400,-13.100,-3.800,-1.180,2.820,-0.023
2019-05-26-01:47:31.254081,0.292,-0.141,10.124,-6.700,-11.700,-4.700,-0.969,2.586,-0.117
2019-05-26-01:47:31.363654,0.280,-0.139,10.134,-6.400,-12.300,-4.300,-0.781,2.641,0.133
2019-05-26-01:47:31.473770,0.311,-0.163,10.129,-6.000,-12.800,-5.600,-0.852,2.547,-0.141
2019-05-26-01:47:31.583629,0.287,-0.156,10.129,-5.400,-12.500,-4.600,-1.133,2.523,-0.234
2019-05-26-01:47:31.693232,0.287,-0.156,10.114,-5.900,-12.000,-4.900,-1.211,2.758,0.016
2019-05-26-01:47:31.802811,0.292,-0.153,10.114,-5.200,-12.300,-5.300,-0.992,2.742,-0.125
2019-05-26-01:47:31.914694,0.285,-0.141,10.114,-6.000,-12.000,-3.400,-1.211,2.820,-0.047
2019-05-26-01:47:32.024546,0.287,-0.165,10.112,-6.100,-12.400,-3.700,-0.945,3.023,-0.281
2019-05-26-01:47:32.134479,0.285,-0.148,10.134,-5.900,-12.700,-4.800,-0.680,2.609,-0.148
2019-05-26-01:47:32.244297,0.299,-0.146,10.124,-5.700,-12.600,-4.000,-1.008,2.820,-0.008
2019-05-26-01:47:32.354130,0.292,-0.151,10.131,-5.800,-12.300,-4.000,-0.906,2.672,0.078
2019-05-26-01:47:32.463932,0.292,-0.165,10.126,-5.300,-11.500,-4.200,-1.203,2.586,-0.078
2019-05-26-01:47:32.573836,0.304,-0.163,10.126,-5.800,-12.700,-5.800,-1.391,2.844,0.031
2019-05-26-01:47:32.683891,0.280,-0.160,10.119,-5.800,-11.700,-3.400,-0.891,2.797,-0.117
2019-05-26-01:47:32.794654,0.297,-0.151,10.136,-4.800,-13.100,-5.000,-1.047,2.367,-0.078
2019-05-26-01:47:32.904819,0.290,-0.136,10.124,-5.800,-11.000,-4.800,-0.820,2.953,-0.148
2019-05-26-01:47:33.014809,0.280,-0.141,10.117,-4.600,-12.500,-5.800,-1.016,2.781,-0.102
2019-05-26-01:47:33.124875,0.306,-0.146,10.129,-6.300,-12.000,-5.000,-1.008,2.844,-0.047
2019-05-26-01:47:33.234558,0.275,-0.156,10.102,-5.000,-13.000,-5.400,-0.688,2.773,0.086
2019-05-26-01:47:33.344150,0.297,-0.141,10.102,-6.600,-12.100,-3.600,-0.703,2.625,-0.211
2019-05-26-01:47:33.453884,0.294,-0.151,10.117,-5.300,-12.200,-4.300,-0.797,2.734,-0.148
2019-05-26-01:47:33.563766,0.290,-0.158,10.126,-5.900,-12.800,-3.900,-0.898,2.633,-0.008
2019-05-26-01:47:33.673519,0.297,-0.165,10.117,-5.600,-13.500,-5.300,-0.867,2.766,-0.203
2019-05-26-01:47:33.783146,0.287,-0.151,10.126,-5.900,-11.500,-4.200,-1.133,2.625,-0.102
2019-05-26-01:47:33.893136,0.290,-0.165,10.124,-5.500,-12.900,-5.000,-1.062,2.797,-0.031
2019-05-26-01:47:34.002850,0.299,-0.141,10.119,-6.100,-11.200,-4.800,-1.227,2.711,-0.273
2019-05-26-01:47:34.112609,0.294,-0.153,10.117,-5.600,-11.600,-3.300,-1.398,2.828,-0.281
2019-05-26-01:47:34.222303,0.285,-0.158,10.105,-5.300,-12.400,-5.200,-0.516,2.586,0.031
2019-05-26-01:47:34.332362,0.294,-0.156,10.114,-6.300,-11.600,-3.100,-1.312,2.570,-0.023
2019-05-26-01:47:34.442193,0.282,-0.165,10.119,-4.700,-12.000,-5.200,-1.289,2.680,0.055
2019-05-26-01:47:34.552109,0.292,-0.160,10.126,-6.600,-11.600,-4.700,-0.961,2.586,-0.148
2019-05-26-01:47:34.661820,0.304,-0.148,10.138,-5.100,-13.000,-5.700,-1.039,2.805,-0.031
2019-05-26-01:47:34.771431,0.285,-0.148,10.129,-6.600,-11.800,-4.300,-1.070,2.688,0.031
2019-05-26-01:47:34.880988,0.290,-0.170,10.124,-5.100,-12.500,-3.800,-0.969,2.586,-0.148
2019-05-26-01:47:34.990590,0.292,-0.156,10.102,-5.700,-11.900,-3.900,-0.773,2.742,-0.141
2019-05-26-01:47:35.100499,0.290,-0.148,10.124,-5.200,-12.400,-5.700,-1.117,2.766,-0.055
2019-05-26-01:47:35.210280,0.294,-0.160,10.095,-6.500,-11.800,-5.100,-1.180,2.742,-0.258
2019-05-26-01:47:35.320045,0.294,-0.141,10.110,-5.900,-13.400,-4.900,-0.844,2.977,-0.211
2019-05-26-01:47:35.429757,0.304,-0.158,10.131,-5.500,-12.500,-4.600,-1.242,2.773,0.148
2019-05-26-01:47:35.539731,0.287,-0.156,10.124,-5.700,-11.800,-4.800,-1.062,2.805,-0.047
2019-05-26-01:47:35.649437,0.292,-0.153,10.131,-5.700,-12.100,-3.600,-1.359,2.578,0.078
2019-05-26-01:47:35.759050,0.301,-0.158,10.131,-5.500,-12.700,-5.100,-0.820,2.734,-0.078
2019-05-26-01:47:35.868744,0.292,-0.144,10.148,-5.300,-12.500,-5.700,-1.039,2.828,-0.273
2019-05-26-01:47:35.978472,0.287,-0.151,10.119,-5.700,-13.000,-4.000,-1.328,2.828,-0.273
2019-05-26-01:47:36.088279,0.270,-0.151,10.107,-5.300,-12.700,-4.300,-1.008,2.820,0.008
2019-05-26-01:47:36.197960,0.294,-0.148,10.134,-5.400,-12.700,-4.100,-1.289,2.938,-0.078
2019-05-26-01:47:36.307933,0.311,-0.153,10.138,-5.000,-12.800,-4.600,-0.977,2.625,0.016
2019-05-26-01:47:36.417639,0.290,-0.151,10.134,-6.700,-12.200,-5.300,-1.023,2.695,-0.078
2019-05-26-01:47:36.527662,0.297,-0.148,10.136,-5.800,-11.300,-4.600,-0.562,2.820,-0.047
2019-05-26-01:47:36.637518,0.292,-0.160,10.129,-5.900,-12.400,-3.800,-1.180,2.570,-0.164
2019-05-26-01:47:36.747538,0.287,-0.151,10.110,-5.000,-12.200,-3.900,-1.312,2.492,0.102
2019-05-26-01:47:36.857186,0.290,-0.146,10.119,-4.500,-12.500,-2.800,-1.180,2.781,0.211
2019-05-26-01:47:36.966847,0.292,-0.151,10.122,-6.100,-11.700,-5.300,-1.320,2.586,0.078
2019-05-26-01:47:37.076742,0.290,-0.160,10.119,-5.300,-12.300,-5.500,-0.891,2.766,-0.227
2019-05-26-01:47:37.186483,0.294,-0.153,10.122,-5.300,-12.700,-4.400,-1.211,2.828,-0.148
2019-05-26-01:47:37.296333,0.290,-0.141,10.138,-4.600,-12.800,-4.800,-0.867,2.797,-0.125
2019-05-26-01:47:37.406049,0.294,-0.153,10.100,-5.300,-12.300,-4.700,-1.070,2.680,-0.008
2019-05-26-01:47:37.516167,0.311,-0.158,10.114,-5.200,-12.800,-5.900,-1.086,2.398,-0.453
2019-05-26-01:47:37.625994,0.294,-0.139,10.124,-5.900,-11.700,-5.000,-1.375,2.766,-0.391
2019-05-26-01:47:37.735709,0.270,-0.146,10.110,-5.700,-12.900,-6.600,-1.133,2.484,-0.070
2019-05-26-01:47:37.845286,0.285,-0.156,10.126,-5.600,-10.500,-5.000,-1.258,2.570,-0.078
2019-05-26-01:47:37.955141,0.301,-0.146,10.124,-5.300,-12.800,-4.200,-0.867,2.633,-0.094
2019-05-26-01:47:38.065089,0.285,-0.158,10.110,-7.500,-10.800,-3.700,-0.867,2.672,-0.164
2019-05-26-01:47:38.174782,0.282,-0.165,10.126,-5.000,-13.500,-5.700,-1.250,2.672,0.016
2019-05-26-01:47:38.284487,0.287,-0.153,10.117,-6.000,-12.000,-5.100,-0.898,2.742,-0.297
2019-05-26-01:47:38.394176,0.294,-0.151,10.119,-5.800,-13.500,-5.400,-0.633,2.812,-0.164
2019-05-26-01:47:38.504023,0.294,-0.167,10.126,-7.500,-12.200,-3.300,-1.008,2.734,-0.070
2019-05-26-01:47:38.613890,0.301,-0.170,10.131,-5.400,-14.500,-5.100,-1.062,2.547,-0.227
2019-05-26-01:47:38.724001,0.280,-0.151,10.138,-5.400,-11.700,-4.600,-0.820,2.484,-0.203
2019-05-26-01:47:38.833647,0.280,-0.156,10.138,-4.500,-13.500,-3.800,-0.633,2.695,-0.125
2019-05-26-01:47:38.943227,0.294,-0.146,10.102,-4.900,-11.900,-4.400,-1.000,2.930,-0.008
2019-05-26-01:47:39.052915,0.290,-0.153,10.098,-6.000,-12.900,-4.700,-1.258,2.797,-0.367
2019-05-26-01:47:39.162924,0.294,-0.146,10.131,-5.800,-12.700,-3.900,-0.969,2.562,-0.273
2019-05-26-01:47:39.272590,0.297,-0.156,10.136,-6.500,-12.600,-4.000,-0.898,2.742,-0.227
2019-05-26-01:47:39.382261,0.287,-0.158,10.119,-5.800,-13.200,-4.500,-0.984,2.758,-0.273
2019-05-26-01:47:39.492078,0.292,-0.163,10.119,-6.900,-12.200,-4.900,-1.133,2.750,0.039
2019-05-26-01:47:39.601856,0.287,-0.141,10.117,-5.100,-12.600,-4.900,-0.703,2.953,-0.234
2019-05-26-01:47:39.711517,0.285,-0.146,10.102,-5.900,-12.300,-4.900,-0.898,2.656,0.062
2019-05-26-01:47:39.821428,0.304,-0.153,10.122,-5.300,-12.200,-4.300,-0.945,2.523,-0.258
2019-05-26-01:47:39.931413,0.297,-0.163,10.134,-5.900,-11.900,-5.300,-1.555,2.688,0.102
2019-05-26-01:47:40.041184,0.292,-0.151,10.124,-6.500,-12.900,-3.700,-0.969,2.539,-0.023
2019-05-26-01:47:40.150869,0.292,-0.156,10.110,-5.200,-12.400,-6.200,-0.953,2.742,-0.078
2019-05-26-01:47:40.260555,0.301,-0.148,10.126,-5.700,-11.700,-4.500,-0.875,2.539,-0.070
2019-05-26-01:47:40.372599,0.304,-0.146,10.124,-5.900,-11.900,-4.800,-1.000,2.750,0.242
2019-05-26-01:47:40.482402,0.297,-0.158,10.141,-6.000,-12.000,-4.600,-0.969,2.523,-0.148
2019-05-26-01:47:40.592372,0.275,-0.144,10.124,-5.800,-14.100,-5.500,-1.141,2.750,0.078
2019-05-26-01:47:40.702130,0.273,-0.153,10.098,-6.500,-11.600,-5.000,-0.938,2.633,-0.008
2019-05-26-01:47:40.811767,0.292,-0.156,10.117,-5.900,-12.200,-4.300,-0.703,2.695,-0.211
2019-05-26-01:47:40.921340,0.297,-0.148,10.100,-5.900,-12.700,-4.700,-1.211,2.828,-0.203
2019-05-26-01:47:41.031021,0.280,-0.144,10.112,-5.100,-12.900,-5.700,-1.008,2.625,-0.234
2019-05-26-01:47:41.141042,0.297,-0.153,10.119,-6.100,-12.900,-4.100,-1.188,2.562,-0.203
2019-05-26-01:47:41.250722,0.290,-0.146,10.124,-5.800,-12.700,-5.100,-1.258,2.570,-0.102
2019-05-26-01:47:41.360500,0.297,-0.151,10.112,-6.400,-11.700,-5.200,-1.305,2.797,-0.023
2019-05-26-01:47:41.470314,0.294,-0.163,10.122,-5.200,-12.500,-4.500,-1.023,2.633,-0.211
2019-05-26-01:47:41.580394,0.290,-0.153,10.146,-5.900,-12.700,-4.600,-1.109,2.734,-0.094
2019-05-26-01:47:41.690046,0.275,-0.156,10.117,-6.400,-13.300,-3.900,-0.938,2.672,-0.125
2019-05-26-01:47:41.799632,0.280,-0.153,10.141,-6.200,-11.800,-5.200,-1.500,2.781,-0.227
2019-05-26-01:47:41.909200,0.294,-0.153,10.124,-5.600,-11.700,-3.600,-1.070,2.547,-0.117
2019-05-26-01:47:42.018828,0.287,-0.151,10.114,-5.400,-12.800,-4.100,-1.062,2.500,-0.102
2019-05-26-01:47:42.128744,0.282,-0.148,10.126,-5.500,-11.100,-4.800,-1.305,2.844,-0.070
2019-05-26-01:47:42.238559,0.299,-0.158,10.131,-6.500,-12.900,-5.200,-0.656,2.688,0.039
2019-05-26-01:47:42.348620,0.285,-0.160,10.134,-6.000,-11.300,-4.400,-1.211,2.953,-0.250
2019-05-26-01:47:42.458512,0.294,-0.160,10.126,-6.300,-12.600,-5.800,-0.883,2.492,0.031
2019-05-26-01:47:42.568296,0.294,-0.153,10.136,-5.800,-11.900,-3.600,-1.328,2.594,-0.258
2019-05-26-01:47:42.677968,0.292,-0.148,10.138,-5.600,-12.300,-4.800,-1.102,3.125,-0.141
2019-05-26-01:47:42.787934,0.294,-0.156,10.134,-5.600,-11.000,-4.000,-1.062,2.523,-0.227
2019-05-26-01:47:42.897641,0.292,-0.165,10.124,-6.000,-11.600,-5.500,-0.828,2.789,0.016
2019-05-26-01:47:43.007540,0.299,-0.156,10.112,-5.100,-11.900,-4.400,-0.406,2.766,-0.344
2019-05-26-01:47:43.117392,0.299,-0.139,10.112,-6.200,-12.400,-4.500,-1.211,2.500,-0.055
2019-05-26-01:47:43.227276,0.294,-0.156,10.126,-5.900,-12.100,-5.400,-1.258,2.562,-0.023
2019-05-26-01:47:43.336931,0.287,-0.158,10.112,-4.700,-12.300,-4.600,-0.938,2.734,-0.234
2019-05-26-01:47:43.446703,0.297,-0.146,10.122,-6.400,-11.400,-3.200,-1.109,2.680,-0.211
2019-05-26-01:47:43.556827,0.306,-0.151,10.148,-5.400,-12.000,-5.100,-1.008,2.539,-0.383
2019-05-26-01:47:43.666545,0.304,-0.153,10.122,-5.900,-11.900,-4.700,-1.180,2.391,-0.047
2019-05-26-01:47:43.776237,0.287,-0.158,10.112,-5.800,-12.000,-4.000,-0.672,2.500,-0.125
2019-05-26-01:47:43.885860,0.292,-0.151,10.136,-6.100,-12.200,-3.800,-1.039,2.734,-0.141
2019-05-26-01:47:43.995889,0.280,-0.153,10.126,-5.800,-12.400,-5.000,-0.852,2.969,0.148
2019-05-26-01:47:44.105729,0.280,-0.153,10.126,-5.200,-12.900,-5.100,-0.898,2.906,-0.117
2019-05-26-01:47:44.215377,0.306,-0.144,10.126,-6.000,-11.600,-4.300,-1.156,2.711,-0.102
2019-05-26-01:47:44.325108,0.294,-0.139,10.129,-6.400,-12.500,-5.000,-0.656,2.711,-0.391
2019-05-26-01:47:44.434886,0.280,-0.163,10.124,-6.500,-11.500,-5.000,-0.656,2.547,-0.320
2019-05-26-01:47:44.544631,0.294,-0.156,10.148,-6.400,-12.900,-5.500,-1.375,2.500,-0.180
2019-05-26-01:47:44.654348,0.285,-0.153,10.129,-6.600,-12.200,-5.400,-0.938,2.719,-0.055
2019-05-26-01:47:44.764330,0.301,-0.134,10.112,-4.600,-11.900,-3.900,-1.094,2.492,0.125
2019-05-26-01:47:44.874055,0.311,-0.136,10.126,-5.200,-12.500,-5.900,-1.477,2.570,-0.250
2019-05-26-01:47:44.983775,0.273,-0.160,10.122,-5.600,-11.600,-3.100,-1.320,2.789,0.078
2019-05-26-01:47:45.093728,0.294,-0.148,10.122,-5.500,-12.900,-5.900,-1.039,2.852,-0.117
2019-05-26-01:47:45.203794,0.282,-0.158,10.129,-5.600,-11.500,-3.500,-0.828,2.766,-0.180
2019-05-26-01:47:45.313709,0.294,-0.141,10.117,-6.200,-13.100,-5.500,-0.961,2.938,-0.047
2019-05-26-01:47:45.423425,0.301,-0.153,10.122,-5.700,-11.600,-6.000,-0.852,3.102,-0.023
2019-05-26-01:47:45.533236,0.287,-0.144,10.124,-6.100,-13.100,-6.300,-1.180,2.906,-0.094
2019-05-26-01:47:45.642995,0.282,-0.146,10.136,-5.400,-12.100,-5.200,-1.211,2.594,-0.148
2019-05-26-01:47:45.752855,0.278,-0.158,10.126,-5.500,-12.900,-5.500,-1.477,2.719,-0.211
2019-05-26-01:47:45.862582,0.285,-0.146,10.122,-5.400,-11.700,-4.800,-1.227,2.734,-0.070
2019-05-26-01:47:45.972564,0.299,-0.146,10.153,-5.800,-14.100,-5.600,-0.781,2.695,-0.070
2019-05-26-01:47:46.082410,0.294,-0.136,10.119,-5.200,-12.100,-5.300,-0.672,2.828,-0.031
2019-05-26-01:47:46.192116,0.294,-0.163,10.098,-5.400,-13.300,-7.300,-1.062,2.914,-0.031
2019-05-26-01:47:46.302412,0.294,-0.151,10.124,-5.400,-11.900,-4.400,-1.250,2.734,-0.055
2019-05-26-01:47:46.412246,0.287,-0.144,10.131,-5.600,-13.000,-4.200,-0.805,2.797,-0.164
2019-05-26-01:47:46.522241,0.299,-0.151,10.119,-6.700,-12.200,-3.300,-0.773,2.734,-0.023
2019-05-26-01:47:46.632128,0.282,-0.165,10.117,-6.200,-13.000,-6.600,-1.023,2.914,-0.227
2019-05-26-01:47:46.741771,0.278,-0.141,10.114,-5.600,-11.400,-3.700,-1.125,2.734,0.039
2019-05-26-01:47:46.851695,0.306,-0.156,10.102,-6.100,-12.600,-3.600,-0.625,2.758,-0.148
2019-05-26-01:47:46.961490,0.285,-0.156,10.119,-5.500,-11.500,-4.700,-0.898,2.695,-0.102
2019-05-26-01:47:47.071282,0.282,-0.158,10.141,-5.600,-12.700,-4.600,-1.094,2.648,-0.008
2019-05-26-01:47:47.181333,0.297,-0.151,10.143,-5.100,-11.700,-4.000,-1.117,2.562,-0.258
2019-05-26-01:47:47.291287,0.273,-0.151,10.105,-4.600,-12.800,-5.200,-0.836,2.648,0.039
2019-05-26-01:47:47.401017,0.290,-0.151,10.119,-5.600,-12.900,-5.000,-0.938,2.508,-0.367
2019-05-26-01:47:47.511048,0.290,-0.146,10.114,-5.600,-12.300,-4.500,-0.867,2.758,-0.250
2019-05-26-01:47:47.621037,0.287,-0.153,10.146,-5.900,-13.400,-5.300,-1.352,2.797,-0.102
2019-05-26-01:47:47.730713,0.287,-0.141,10.141,-6.300,-12.300,-4.300,-1.180,2.742,-0.383
2019-05-26-01:47:47.840376,0.299,-0.144,10.119,-5.100,-12.400,-4.600,-1.008,2.844,-0.188
2019-05-26-01:47:47.950272,0.280,-0.167,10.114,-6.400,-12.400,-5.000,-0.984,2.766,-0.180
2019-05-26-01:47:48.060060,0.282,-0.163,10.136,-5.300,-11.200,-4.800,-1.023,2.711,-0.320
2019-05-26-01:47:48.169760,0.282,-0.170,10.136,-6.400,-12.800,-4.100,-1.086,2.781,-0.094
2019-05-26-01:47:48.279347,0.299,-0.153,10.119,-6.500,-12.100,-4.700,-0.641,2.711,0.125
2019-05-26-01:47:48.389358,0.275,-0.146,10.136,-5.100,-13.600,-4.700,-1.156,2.758,-0.102
2019-05-26-01:47:48.499151,0.278,-0.158,10.095,-5.700,-12.300,-3.600,-0.648,2.523,-0.148
2019-05-26-01:47:48.608953,0.285,-0.148,10.102,-5.500,-13.600,-7.100,-1.070,2.570,-0.125
2019-05-26-01:47:48.721054,0.304,-0.146,10.138,-6.400,-10.900,-4.800,-1.016,2.633,-0.273
2019-05-26-01:47:48.830720,0.301,-0.153,10.126,-6.200,-13.500,-4.500,-1.039,2.672,-0.094
2019-05-26-01:47:48.940417,0.292,-0.151,10.107,-6.000,-10.800,-4.000,-1.133,2.648,-0.055
2019-05-26-01:47:49.050190,0.280,-0.139,10.138,-5.800,-12.900,-5.500,-1.109,2.695,-0.102
2019-05-26-01:47:49.159901,0.292,-0.146,10.119,-5.400,-10.200,-4.600,-1.141,2.695,-0.008
2019-05-26-01:47:49.269526,0.290,-0.151,10.119,-6.700,-13.900,-5.500,-1.008,2.648,-0.047
2019-05-26-01:47:49.379122,0.287,-0.144,10.119,-6.000,-10.900,-4.200,-1.273,2.672,0.086
2019-05-26-01:47:49.488858,0.290,-0.160,10.124,-5.700,-12.800,-6.400,-0.875,2.758,-0.180
2019-05-26-01:47:49.598862,0.275,-0.163,10.134,-5.500,-11.900,-4.500,-1.234,2.555,0.031
2019-05-26-01:47:49.708679,0.275,-0.148,10.114,-6.100,-12.300,-5.100,-0.977,2.539,0.172
2019-05-26-01:47:49.818283,0.301,-0.158,10.134,-6.100,-11.600,-4.800,-1.117,2.609,-0.164
2019-05-26-01:47:49.928164,0.299,-0.134,10.138,-5.500,-13.200,-5.900,-1.133,2.719,-0.180
2019-05-26-01:47:50.037916,0.290,-0.151,10.136,-6.200,-10.800,-4.000,-0.992,2.648,-0.320
2019-05-26-01:47:50.147653,0.282,-0.139,10.105,-6.500,-12.300,-6.200,-0.766,2.852,-0.180
2019-05-26-01:47:50.257319,0.290,-0.148,10.107,-7.400,-11.800,-5.100,-1.219,2.812,0.031
2019-05-26-01:47:50.367190,0.287,-0.156,10.105,-6.200,-13.000,-5.400,-0.695,2.883,-0.023
2019-05-26-01:47:50.476961,0.306,-0.136,10.126,-6.200,-13.100,-5.700,-1.023,2.453,-0.180
2019-05-26-01:47:50.586817,0.299,-0.153,10.126,-6.200,-12.900,-4.200,-0.633,2.820,-0.008
2019-05-26-01:47:50.696497,0.282,-0.141,10.129,-6.200,-12.900,-4.400,-1.172,2.688,0.039
2019-05-26-01:47:50.806506,0.297,-0.163,10.122,-5.600,-12.800,-3.700,-0.648,2.633,-0.344
2019-05-26-01:47:50.916235,0.299,-0.141,10.114,-5.500,-12.400,-4.700,-0.688,2.477,0.031
2019-05-26-01:47:51.025893,0.301,-0.156,10.110,-5.900,-12.200,-4.000,-1.102,2.844,0.062
2019-05-26-01:47:51.135967,0.280,-0.163,10.110,-5.500,-12.500,-5.900,-0.844,2.805,-0.070
2019-05-26-01:47:51.245780,0.292,-0.151,10.148,-5.700,-12.300,-4.600,-1.008,2.539,0.008
2019-05-26-01:47:51.355372,0.270,-0.148,10.129,-6.100,-12.000,-4.200,-1.180,2.680,-0.211
2019-05-26-01:47:51.465049,0.294,-0.163,10.129,-5.500,-12.400,-2.800,-0.914,2.766,-0.094
2019-05-26-01:47:51.574838,0.290,-0.148,10.148,-6.000,-12.700,-4.000,-0.727,2.969,-0.078
2019-05-26-01:47:51.684512,0.294,-0.144,10.129,-6.700,-13.200,-4.700,-0.969,2.602,0.016
2019-05-26-01:47:51.794105,0.292,-0.158,10.141,-6.700,-11.700,-5.800,-1.188,2.656,-0.008
2019-05-26-01:47:51.903654,0.285,-0.148,10.126,-5.800,-12.500,-4.700,-0.656,2.828,-0.031
2019-05-26-01:47:52.013572,0.287,-0.153,10.136,-5.900,-12.400,-4.000,-1.086,2.672,-0.070
2019-05-26-01:47:52.123385,0.304,-0.153,10.112,-4.400,-12.300,-4.300,-1.102,2.672,0.086
2019-05-26-01:47:52.233077,0.297,-0.144,10.131,-6.700,-12.100,-4.100,-1.188,2.852,-0.117
2019-05-26-01:47:52.343123,0.287,-0.151,10.153,-6.500,-12.500,-6.500,-1.102,2.672,0.055
2019-05-26-01:47:52.452915,0.282,-0.167,10.134,-6.200,-12.300,-4.800,-0.938,2.570,-0.078
2019-05-26-01:47:52.562733,0.299,-0.136,10.126,-5.900,-12.800,-3.700,-1.031,2.750,0.156
2019-05-26-01:47:52.672394,0.306,-0.158,10.114,-6.200,-11.700,-4.000,-0.734,2.711,0.156
2019-05-26-01:47:52.782071,0.299,-0.146,10.138,-5.700,-12.100,-5.600,-1.031,2.578,0.062
2019-05-26-01:47:52.891660,0.294,-0.148,10.100,-6.300,-13.000,-6.100,-0.781,2.703,0.039
2019-05-26-01:47:53.001509,0.287,-0.158,10.110,-6.200,-12.100,-6.000,-1.164,2.570,-0.148
2019-05-26-01:47:53.111442,0.285,-0.146,10.112,-5.600,-12.700,-5.300,-1.203,2.977,-0.047
2019-05-26-01:47:53.221534,0.287,-0.156,10.126,-5.400,-12.700,-4.900,-0.992,2.828,-0.203
2019-05-26-01:47:53.331277,0.304,-0.139,10.134,-5.900,-13.000,-5.000,-1.016,2.719,-0.188
2019-05-26-01:47:53.441027,0.301,-0.153,10.117,-6.700,-11.700,-4.400,-0.922,2.539,-0.125
2019-05-26-01:47:53.550991,0.282,-0.160,10.134,-5.700,-12.700,-5.700,-1.117,2.492,0.086
2019-05-26-01:47:53.660713,0.290,-0.153,10.114,-6.600,-12.000,-2.600,-0.867,2.758,-0.047
2019-05-26-01:47:53.770470,0.294,-0.156,10.138,-5.400,-13.000,-4.000,-0.703,2.852,-0.273
2019-05-26-01:47:53.880056,0.292,-0.146,10.124,-6.300,-11.400,-6.500,-0.750,2.797,-0.188
2019-05-26-01:47:53.989657,0.304,-0.132,10.148,-5.400,-12.400,-5.800,-0.773,2.695,0.008
2019-05-26-01:47:54.099433,0.297,-0.156,10.112,-5.600,-11.400,-3.800,-1.398,2.742,-0.078
2019-05-26-01:47:54.209070,0.275,-0.163,10.112,-5.000,-13.000,-5.200,-0.945,2.703,0.016
2019-05-26-01:47:54.319230,0.285,-0.160,10.126,-5.900,-12.400,-5.800,-0.898,2.742,-0.047
2019-05-26-01:47:54.429117,0.294,-0.153,10.136,-6.100,-12.900,-4.600,-1.203,2.781,-0.078
2019-05-26-01:47:54.538870,0.280,-0.141,10.119,-6.100,-12.700,-3.400,-1.180,2.586,-0.078
2019-05-26-01:47:54.648676,0.290,-0.132,10.129,-6.200,-13.600,-3.700,-1.047,2.961,0.031
2019-05-26-01:47:54.758773,0.301,-0.134,10.131,-6.900,-12.500,-4.100,-1.289,2.680,-0.211
2019-05-26-01:47:54.868489,0.304,-0.141,10.122,-5.300,-12.700,-5.400,-1.117,2.547,-0.188
2019-05-26-01:47:54.978172,0.294,-0.146,10.122,-6.200,-12.300,-4.100,-1.047,2.664,0.172
2019-05-26-01:47:55.088015,0.292,-0.148,10.122,-5.500,-12.000,-5.000,-1.312,2.852,-0.008
2019-05-26-01:47:55.197703,0.287,-0.148,10.114,-6.700,-12.600,-3.800,-1.062,2.570,-0.023
2019-05-26-01:47:55.307457,0.285,-0.160,10.138,-6.000,-13.300,-5.400,-0.742,2.695,-0.141
2019-05-26-01:47:55.417148,0.285,-0.153,10.138,-6.100,-12.500,-5.000,-0.727,2.391,-0.188
2019-05-26-01:47:55.527372,0.304,-0.139,10.136,-6.400,-12.700,-5.200,-0.547,2.727,0.148
2019-05-26-01:47:55.637194,0.301,-0.148,10.114,-5.100,-13.000,-4.500,-0.945,2.648,-0.102
2019-05-26-01:47:55.746833,0.292,-0.132,10.134,-5.500,-12.700,-5.000,-0.961,2.758,-0.250
2019-05-26-01:47:55.856425,0.297,-0.158,10.124,-4.500,-11.900,-5.200,-0.336,2.695,-0.125
2019-05-26-01:47:55.966498,0.292,-0.148,10.117,-6.100,-13.400,-4.000,-0.969,2.414,-0.148
2019-05-26-01:47:56.076414,0.287,-0.153,10.136,-5.900,-12.200,-5.300,-1.094,2.547,-0.094
2019-05-26-01:47:56.186115,0.301,-0.158,10.114,-5.200,-13.300,-4.000,-0.984,2.609,-0.125
2019-05-26-01:47:56.295804,0.294,-0.165,10.134,-6.500,-12.100,-5.600,-1.164,2.758,-0.125
2019-05-26-01:47:56.405687,0.278,-0.153,10.119,-4.900,-13.300,-4.400,-0.438,2.672,-0.148
2019-05-26-01:47:56.517148,0.287,-0.156,10.143,-5.200,-12.000,-5.900,-1.477,2.656,-0.055
2019-05-26-01:47:56.627197,0.292,-0.158,10.124,-6.000,-12.600,-5.400,-0.695,2.719,-0.141
2019-05-26-01:47:56.737217,0.301,-0.156,10.119,-6.700,-11.600,-5.200,-1.148,2.477,0.188
2019-05-26-01:47:56.846891,0.292,-0.151,10.143,-5.700,-13.600,-4.600,-1.227,2.477,-0.180
2019-05-26-01:47:56.956551,0.292,-0.153,10.136,-6.200,-11.900,-3.500,-1.133,2.711,-0.047
2019-05-26-01:47:57.066376,0.282,-0.163,10.136,-6.200,-13.100,-5.500,-1.164,2.734,-0.258
2019-05-26-01:47:57.179009,0.290,-0.165,10.126,-6.300,-11.000,-4.900,-1.141,2.711,-0.023
2019-05-26-01:47:57.289039,0.306,-0.146,10.114,-6.300,-13.100,-6.000,-1.305,2.711,-0.164
2019-05-26-01:47:57.398808,0.294,-0.146,10.131,-6.400,-10.800,-5.100,-1.141,2.828,-0.438
2019-05-26-01:47:57.508661,0.294,-0.163,10.122,-5.600,-13.100,-5.900,-0.969,2.625,0.125
2019-05-26-01:47:57.618627,0.273,-0.163,10.124,-5.700,-11.800,-4.400,-0.945,2.734,-0.078
2019-05-26-01:47:57.728366,0.282,-0.148,10.124,-5.700,-13.600,-4.800,-1.352,2.828,-0.141
2019-05-26-01:47:57.837954,0.282,-0.141,10.134,-6.000,-12.000,-3.700,-1.094,2.648,-0.008
2019-05-26-01:47:57.948092,0.304,-0.167,10.117,-6.400,-13.200,-5.000,-1.164,2.547,-0.070
2019-05-26-01:47:58.057972,0.299,-0.167,10.131,-6.900,-11.800,-4.100,-1.188,2.625,-0.008
2019-05-26-01:47:58.167663,0.287,-0.148,10.114,-5.400,-12.200,-6.100,-0.969,2.742,-0.102
2019-05-26-01:47:58.277263,0.282,-0.172,10.119,-6.000,-11.800,-4.200,-1.008,2.500,-0.141
2019-05-26-01:47:58.387337,0.287,-0.144,10.114,-6.200,-12.300,-5.100,-1.477,2.930,0.156
2019-05-26-01:47:58.497179,0.299,-0.151,10.129,-6.200,-12.000,-3.400,-1.023,2.594,-0.055
2019-05-26-01:47:58.607004,0.297,-0.156,10.143,-6.700,-12.400,-4.800,-1.023,2.586,-0.125
2019-05-26-01:47:58.716892,0.275,-0.132,10.117,-6.400,-12.100,-3.800,-1.062,2.711,-0.102
2019-05-26-01:47:58.826525,0.301,-0.132,10.136,-5.600,-12.600,-3.700,-0.805,2.758,-0.258
2019-05-26-01:47:58.936303,0.299,-0.153,10.100,-6.800,-12.300,-4.500,-1.133,2.594,-0.406
2019-05-26-01:47:59.046093,0.301,-0.136,10.119,-5.100,-13.800,-4.400,-0.719,2.656,0.008
2019-05-26-01:47:59.156202,0.278,-0.163,10.107,-6.500,-12.600,-4.800,-1.117,2.844,-0.328
2019-05-26-01:47:59.265880,0.280,-0.144,10.126,-5.300,-13.300,-4.400,-0.898,2.805,-0.125
2019-05-26-01:47:59.375746,0.273,-0.148,10.131,-6.200,-13.200,-6.000,-0.938,2.633,-0.047
2019-05-26-01:47:59.485582,0.297,-0.153,10.119,-5.800,-12.500,-5.500,-1.203,2.609,-0.141
2019-05-26-01:47:59.595562,0.285,-0.156,10.122,-6.600,-12.600,-4.100,-1.336,2.758,-0.125
2019-05-26-01:47:59.705311,0.290,-0.151,10.148,-5.800,-12.400,-4.400,-1.312,2.766,-0.141
2019-05-26-01:47:59.814912,0.299,-0.160,10.119,-4.400,-10.800,-3.900,-0.891,2.844,-0.102
2019-05-26-01:47:59.924485,0.290,-0.158,10.146,-6.000,-13.600,-4.600,-0.656,2.844,-0.102
2019-05-26-01:48:00.034355,0.299,-0.151,10.107,-6.100,-12.500,-4.800,-0.750,2.805,-0.148
2019-05-26-01:48:00.144137,0.294,-0.151,10.134,-5.900,-13.200,-5.400,-0.992,2.867,-0.227
2019-05-26-01:48:00.253802,0.304,-0.139,10.119,-6.700,-11.000,-3.800,-0.727,2.609,-0.148
2019-05-26-01:48:00.363875,0.280,-0.146,10.110,-6.200,-12.400,-4.300,-1.430,2.758,-0.094
2019-05-26-01:48:00.473666,0.297,-0.163,10.134,-6.800,-12.200,-4.400,-1.023,3.062,-0.078
2019-05-26-01:48:00.583485,0.270,-0.156,10.122,-6.200,-12.900,-3.600,-0.898,2.781,-0.031
2019-05-26-01:48:00.693113,0.297,-0.156,10.107,-6.800,-11.100,-4.300,-1.094,2.906,0.078
2019-05-26-01:48:00.803119,0.297,-0.134,10.124,-6.300,-13.300,-5.300,-0.742,2.656,-0.008
2019-05-26-01:48:00.912783,0.285,-0.134,10.117,-6.800,-12.500,-4.600,-0.938,2.742,-0.094
2019-05-26-01:48:01.022429,0.294,-0.167,10.129,-7.500,-13.500,-4.700,-1.391,2.672,0.172
2019-05-26-01:48:01.132332,0.299,-0.144,10.143,-6.900,-13.000,-3.600,-1.180,2.586,-0.250
2019-05-26-01:48:01.242043,0.297,-0.158,10.105,-6.100,-13.600,-5.700,-1.164,2.734,-0.234
2019-05-26-01:48:01.351614,0.280,-0.153,10.134,-5.900,-12.200,-4.100,-0.914,2.906,-0.047
2019-05-26-01:48:01.461292,0.270,-0.163,10.119,-5.700,-12.800,-4.700,-1.109,2.805,-0.273
2019-05-26-01:48:01.571226,0.290,-0.148,10.119,-5.300,-11.800,-3.600,-1.008,2.609,-0.125
2019-05-26-01:48:01.680931,0.301,-0.136,10.124,-4.600,-13.400,-4.700,-1.234,2.680,-0.273
2019-05-26-01:48:01.790532,0.297,-0.146,10.110,-4.700,-11.500,-2.700,-1.039,2.508,-0.141
2019-05-26-01:48:01.900088,0.287,-0.144,10.119,-6.500,-11.000,-4.700,-0.883,2.734,0.102
2019-05-26-01:48:02.010046,0.275,-0.165,10.124,-6.000,-13.200,-4.800,-0.922,2.719,0.008
2019-05-26-01:48:02.119844,0.287,-0.156,10.122,-5.600,-11.000,-4.900,-1.375,2.797,-0.031
2019-05-26-01:48:02.229510,0.290,-0.165,10.143,-5.900,-13.600,-2.700,-1.234,2.633,-0.008
2019-05-26-01:48:02.339157,0.299,-0.156,10.122,-6.200,-11.000,-4.900,-1.500,2.766,-0.141
2019-05-26-01:48:02.449116,0.292,-0.158,10.124,-7.000,-12.200,-5.600,-1.258,2.695,-0.227
2019-05-26-01:48:02.558878,0.292,-0.156,10.126,-6.100,-12.000,-4.300,-1.156,2.680,-0.305
2019-05-26-01:48:02.668672,0.297,-0.146,10.114,-6.100,-12.000,-5.200,-0.836,2.945,0.031
2019-05-26-01:48:02.778718,0.278,-0.160,10.131,-6.500,-12.600,-4.400,-1.039,2.547,-0.117
2019-05-26-01:48:02.888778,0.299,-0.156,10.091,-6.800,-12.200,-4.100,-1.453,2.680,-0.234
2019-05-26-01:48:02.998787,0.287,-0.141,10.114,-5.900,-12.500,-3.900,-1.273,2.539,0.055
2019-05-26-01:48:03.108753,0.301,-0.160,10.129,-6.800,-12.100,-5.100,-1.023,2.766,0.008
2019-05-26-01:48:03.218884,0.294,-0.153,10.126,-6.600,-12.500,-4.300,-1.062,2.672,-0.117
2019-05-26-01:48:03.328633,0.278,-0.153,10.129,-6.400,-11.800,-5.600,-1.305,2.906,-0.078
2019-05-26-01:48:03.438349,0.287,-0.156,10.134,-6.200,-12.600,-5.100,-1.328,2.438,-0.055
2019-05-26-01:48:03.548074,0.287,-0.144,10.117,-7.000,-12.600,-4.000,-1.016,2.680,-0.102
2019-05-26-01:48:03.657728,0.270,-0.163,10.119,-6.400,-12.500,-4.200,-0.891,2.719,-0.055
2019-05-26-01:48:03.767353,0.297,-0.153,10.131,-5.700,-11.700,-3.700,-0.578,2.508,-0.094
2019-05-26-01:48:03.877165,0.294,-0.160,10.131,-5.400,-12.500,-5.500,-1.047,2.656,-0.367
2019-05-26-01:48:03.987240,0.294,-0.151,10.114,-5.800,-12.400,-4.500,-0.797,2.453,-0.211
2019-05-26-01:48:04.097186,0.297,-0.163,10.124,-5.400,-13.100,-2.900,-0.820,2.797,-0.102
2019-05-26-01:48:04.206846,0.299,-0.158,10.117,-5.300,-12.000,-3.800,-0.914,2.719,-0.102
2019-05-26-01:48:04.316435,0.275,-0.167,10.112,-6.100,-13.100,-6.400,-0.633,2.680,-0.188
2019-05-26-01:48:04.426563,0.282,-0.144,10.105,-6.400,-12.300,-4.200,-0.992,2.578,0.016
2019-05-26-01:48:04.536385,0.299,-0.139,10.136,-5.500,-12.800,-6.100,-0.922,2.672,0.102
2019-05-26-01:48:04.646359,0.299,-0.139,10.143,-6.600,-11.100,-4.600,-1.109,2.625,-0.227
2019-05-26-01:48:04.756145,0.299,-0.163,10.141,-6.300,-11.700,-3.300,-1.266,2.891,-0.148
2019-05-26-01:48:04.865831,0.285,-0.141,10.134,-5.600,-13.500,-4.100,-0.914,2.797,-0.094
2019-05-26-01:48:04.975453,0.299,-0.156,10.110,-6.800,-10.800,-3.500,-0.852,2.625,-0.023
2019-05-26-01:48:05.085250,0.299,-0.163,10.126,-5.500,-12.900,-4.700,-1.086,2.648,-0.078
2019-05-26-01:48:05.195209,0.301,-0.153,10.126,-6.100,-11.200,-1.600,-1.406,2.672,0.109
2019-05-26-01:48:05.304907,0.282,-0.146,10.117,-4.500,-13.100,-6.100,-0.992,2.648,-0.258
2019-05-26-01:48:05.414712,0.292,-0.144,10.129,-4.700,-12.000,-4.900,-1.133,2.969,-0.047
2019-05-26-01:48:05.526461,0.278,-0.151,10.124,-5.000,-13.700,-5.900,-1.375,2.656,-0.078
2019-05-26-01:48:05.636771,0.297,-0.144,10.112,-5.800,-12.700,-3.300,-0.734,2.469,0.078
2019-05-26-01:48:05.746528,0.299,-0.148,10.114,-5.000,-13.000,-5.100,-0.875,2.734,-0.164
2019-05-26-01:48:05.856223,0.299,-0.156,10.124,-5.000,-12.300,-5.000,-0.828,2.586,-0.094
2019-05-26-01:48:05.965833,0.294,-0.156,10.129,-5.800,-12.400,-4.300,-1.156,2.484,-0.258
2019-05-26-01:48:06.075636,0.280,-0.165,10.131,-5.700,-12.200,-4.800,-0.852,2.664,0.102
2019-05-26-01:48:06.185313,0.280,-0.156,10.126,-5.600,-13.200,-5.000,-0.602,2.758,-0.078
2019-05-26-01:48:06.294887,0.282,-0.165,10.119,-6.100,-12.900,-4.500,-0.969,2.805,-0.250
2019-05-26-01:48:06.404797,0.292,-0.139,10.107,-5.700,-12.400,-4.100,-1.023,2.688,0.062
2019-05-26-01:48:06.514552,0.285,-0.141,10.129,-6.600,-12.200,-4.500,-0.641,2.773,0.078
2019-05-26-01:48:06.624372,0.285,-0.146,10.141,-5.100,-12.700,-5.200,-1.062,2.938,-0.188
2019-05-26-01:48:06.734161,0.309,-0.146,10.122,-4.900,-13.500,-4.700,-0.984,2.695,-0.055
2019-05-26-01:48:06.844237,0.292,-0.144,10.141,-5.700,-13.100,-4.600,-1.062,2.680,-0.070
2019-05-26-01:48:06.953989,0.292,-0.156,10.129,-4.400,-12.700,-4.500,-0.773,2.758,-0.070
2019-05-26-01:48:07.063809,0.287,-0.144,10.141,-5.800,-11.500,-3.600,-0.875,2.492,0.055
2019-05-26-01:48:07.173487,0.287,-0.148,10.114,-5.200,-12.400,-4.400,-0.656,2.539,-0.273
2019-05-26-01:48:07.283081,0.294,-0.151,10.124,-5.800,-11.800,-3.100,-0.750,2.742,-0.125
2019-05-26-01:48:07.392638,0.299,-0.141,10.131,-6.000,-12.500,-3.900,-1.250,2.758,-0.164
2019-05-26-01:48:07.502341,0.294,-0.148,10.119,-6.200,-11.800,-4.600,-0.984,2.766,-0.297
2019-05-26-01:48:07.612430,0.285,-0.158,10.112,-6.600,-13.000,-4.100,-0.844,2.781,-0.320
2019-05-26-01:48:07.722209,0.282,-0.148,10.136,-5.400,-13.100,-3.900,-0.969,2.633,-0.070
2019-05-26-01:48:07.831917,0.287,-0.148,10.112,-5.300,-12.300,-3.300,-0.914,2.758,-0.078
2019-05-26-01:48:07.941506,0.285,-0.165,10.129,-6.400,-12.800,-5.200,-1.328,2.508,-0.141
2019-05-26-01:48:08.051522,0.301,-0.153,10.129,-5.200,-11.800,-4.300,-1.062,2.656,-0.180
2019-05-26-01:48:08.161223,0.287,-0.160,10.098,-5.800,-13.300,-4.700,-1.133,2.844,-0.047
2019-05-26-01:48:08.270821,0.275,-0.156,10.100,-6.300,-12.500,-3.100,-1.086,2.758,-0.008
2019-05-26-01:48:08.380545,0.299,-0.153,10.112,-5.800,-12.600,-4.800,-0.805,2.867,-0.008
2019-05-26-01:48:08.490383,0.299,-0.156,10.141,-6.100,-12.100,-3.500,-1.297,2.789,0.086
2019-05-26-01:48:08.600340,0.294,-0.139,10.110,-4.200,-14.100,-4.600,-0.922,2.625,-0.117
2019-05-26-01:48:08.710043,0.294,-0.160,10.119,-5.300,-10.700,-4.400,-1.016,2.547,-0.234
2019-05-26-01:48:08.820078,0.299,-0.148,10.126,-5.400,-13.300,-5.100,-1.047,2.750,0.125
2019-05-26-01:48:08.929750,0.285,-0.148,10.134,-6.600,-11.500,-4.500,-0.938,2.969,-0.188
2019-05-26-01:48:09.039773,0.287,-0.156,10.143,-5.800,-12.900,-4.400,-1.016,2.805,-0.461
2019-05-26-01:48:09.149660,0.301,-0.141,10.114,-6.100,-11.700,-3.000,-1.359,2.648,0.234
2019-05-26-01:48:09.259756,0.287,-0.141,10.102,-5.900,-13.600,-4.200,-1.070,2.578,0.016
2019-05-26-01:48:09.369433,0.292,-0.144,10.124,-5.400,-10.700,-4.500,-1.133,2.477,-0.227
2019-05-26-01:48:09.479160,0.292,-0.141,10.114,-5.800,-12.900,-4.600,-0.930,2.672,-0.227
2019-05-26-01:48:09.588948,0.313,-0.141,10.117,-6.100,-11.600,-4.700,-0.703,2.680,-0.297
2019-05-26-01:48:09.698703,0.309,-0.165,10.134,-5.900,-13.900,-5.100,-0.719,2.930,-0.211
2019-05-26-01:48:09.808283,0.294,-0.158,10.102,-7.000,-12.400,-4.200,-1.281,2.570,-0.125
2019-05-26-01:48:09.917896,0.280,-0.146,10.117,-6.000,-12.300,-4.200,-1.234,2.523,-0.164
2019-05-26-01:48:10.027882,0.299,-0.158,10.119,-5.600,-11.400,-3.700,-1.266,2.594,0.125
2019-05-26-01:48:10.137733,0.290,-0.134,10.117,-5.100,-12.500,-4.700,-1.414,2.477,-0.070
2019-05-26-01:48:10.247364,0.294,-0.160,10.129,-6.200,-12.300,-5.500,-1.305,2.758,-0.328
2019-05-26-01:48:10.357519,0.306,-0.151,10.134,-6.200,-12.300,-5.000,-1.227,2.586,0.031
2019-05-26-01:48:10.467408,0.275,-0.146,10.119,-6.200,-12.300,-3.800,-0.914,2.648,-0.094
2019-05-26-01:48:10.577200,0.280,-0.156,10.122,-6.000,-12.800,-4.500,-0.773,2.633,-0.406
2019-05-26-01:48:10.686831,0.309,-0.165,10.119,-4.900,-12.300,-4.100,-0.672,2.711,-0.078
2019-05-26-01:48:10.796406,0.304,-0.156,10.126,-5.600,-13.100,-5.200,-1.047,2.672,0.086
2019-05-26-01:48:10.906135,0.297,-0.139,10.114,-6.100,-11.600,-3.800,-1.531,2.648,-0.070
2019-05-26-01:48:11.015877,0.285,-0.146,10.141,-5.500,-12.500,-3.900,-0.867,2.742,-0.023
2019-05-26-01:48:11.125726,0.285,-0.151,10.117,-5.300,-11.700,-4.000,-1.203,2.828,0.211
2019-05-26-01:48:11.235872,0.285,-0.153,10.102,-6.000,-12.700,-4.700,-1.328,2.352,-0.211
2019-05-26-01:48:11.345747,0.301,-0.156,10.095,-6.000,-11.600,-3.200,-0.633,2.570,-0.234
2019-05-26-01:48:11.455602,0.299,-0.146,10.134,-5.500,-12.700,-4.100,-0.914,3.047,0.055
2019-05-26-01:48:11.565813,0.290,-0.156,10.129,-6.400,-10.400,-4.600,-0.844,2.547,-0.047
2019-05-26-01:48:11.675545,0.290,-0.165,10.110,-5.300,-13.700,-4.900,-0.992,2.648,-0.164
2019-05-26-01:48:11.785157,0.294,-0.141,10.117,-5.400,-11.400,-4.300,-0.852,2.867,-0.102
2019-05-26-01:48:11.894742,0.297,-0.151,10.129,-5.300,-14.700,-5.800,-1.422,2.953,-0.125
2019-05-26-01:48:12.007098,0.297,-0.141,10.138,-5.600,-11.600,-3.700,-1.023,2.867,-0.008
2019-05-26-01:48:12.117052,0.306,-0.151,10.134,-4.500,-12.600,-4.500,-1.375,2.766,-0.070
2019-05-26-01:48:12.226827,0.287,-0.160,10.122,-5.500,-12.300,-3.400,-0.805,2.586,-0.070
2019-05-26-01:48:12.336441,0.287,-0.151,10.136,-5.300,-12.900,-4.400,-0.992,2.734,0.008
2019-05-26-01:48:12.446490,0.309,-0.151,10.134,-5.600,-11.300,-3.700,-0.969,2.875,0.078
2019-05-26-01:48:12.556488,0.290,-0.153,10.129,-5.200,-14.300,-4.600,-1.266,2.719,-0.117
2019-05-26-01:48:12.666304,0.292,-0.144,10.126,-4.900,-11.200,-3.600,-1.133,2.891,-0.461
2019-05-26-01:48:12.776325,0.278,-0.153,10.131,-5.100,-12.700,-6.600,-0.602,2.711,-0.023
2019-05-26-01:48:12.886076,0.294,-0.153,10.114,-5.300,-11.700,-4.200,-0.992,2.539,-0.047
2019-05-26-01:48:12.996005,0.290,-0.144,10.112,-4.700,-13.400,-5.000,-1.094,2.852,-0.227
2019-05-26-01:48:13.105964,0.294,-0.136,10.119,-5.300,-12.100,-4.400,-1.414,2.727,0.125
2019-05-26-01:48:13.215692,0.290,-0.151,10.114,-5.400,-12.400,-7.000,-1.289,2.672,0.172
2019-05-26-01:48:13.325274,0.287,-0.144,10.134,-5.200,-12.200,-3.100,-0.797,2.656,-0.234
2019-05-26-01:48:13.434903,0.278,-0.148,10.102,-6.600,-13.100,-5.700,-1.250,2.547,-0.117
2019-05-26-01:48:13.544580,0.285,-0.156,10.117,-5.900,-11.300,-5.500,-1.281,2.992,-0.070
2019-05-26-01:48:13.654596,0.299,-0.141,10.124,-5.400,-13.100,-4.200,-1.094,2.703,0.148
2019-05-26-01:48:13.764273,0.290,-0.172,10.117,-5.300,-11.900,-5.300,-1.336,2.898,0.016
2019-05-26-01:48:13.873937,0.290,-0.148,10.131,-7.000,-11.900,-3.500,-1.078,2.711,0.078
2019-05-26-01:48:13.985855,0.275,-0.163,10.134,-4.800,-12.300,-4.400,-1.820,2.508,-0.117
2019-05-26-01:48:14.095820,0.294,-0.151,10.143,-5.400,-11.700,-5.900,-0.828,2.852,-0.055
2019-05-26-01:48:14.205791,0.297,-0.153,10.131,-6.000,-12.700,-5.700,-1.234,2.414,0.055
2019-05-26-01:48:14.315525,0.304,-0.148,10.131,-4.900,-13.100,-5.700,-1.188,2.367,-0.055
2019-05-26-01:48:14.425389,0.285,-0.148,10.126,-5.000,-12.400,-5.100,-0.797,2.797,-0.117
2019-05-26-01:48:14.535041,0.285,-0.134,10.124,-5.800,-12.900,-4.000,-0.969,2.930,-0.070
2019-05-26-01:48:14.644935,0.287,-0.148,10.124,-5.800,-12.300,-3.900,-1.023,2.883,-0.055
2019-05-26-01:48:14.754586,0.292,-0.148,10.146,-5.500,-13.500,-5.100,-0.875,2.438,-0.055
2019-05-26-01:48:14.864597,0.304,-0.148,10.126,-5.500,-12.500,-5.100,-1.297,2.617,0.086
2019-05-26-01:48:14.974325,0.301,-0.163,10.117,-5.300,-13.400,-5.700,-1.227,2.734,-0.188
2019-05-26-01:48:15.084188,0.292,-0.148,10.141,-6.200,-12.400,-2.900,-1.023,2.766,-0.180
2019-05-26-01:48:15.199459,0.292,-0.153,10.124,-5.000,-12.100,-4.500,-0.984,2.844,-0.070
2019-05-26-01:48:15.309475,0.282,-0.146,10.112,-5.100,-13.500,-4.100,-0.750,2.648,-0.055
2019-05-26-01:48:15.419544,0.292,-0.158,10.110,-4.900,-12.600,-4.800,-0.992,2.633,0.008
2019-05-26-01:48:15.529354,0.297,-0.158,10.114,-5.000,-13.300,-5.000,-1.258,2.578,0.055
2019-05-26-01:48:15.639160,0.294,-0.151,10.126,-5.900,-11.600,-2.100,-1.156,2.953,-0.047
2019-05-26-01:48:15.748882,0.278,-0.151,10.129,-5.700,-11.900,-3.500,-0.773,2.867,-0.078
2019-05-26-01:48:15.858862,0.280,-0.165,10.129,-4.600,-13.000,-6.000,-0.680,2.672,-0.430
2019-05-26-01:48:15.975341,0.301,-0.158,10.136,-5.600,-13.600,-5.100,-1.406,2.711,-0.203
2019-05-26-01:48:16.085150,0.278,-0.158,10.124,-5.300,-11.600,-4.000,-1.094,2.719,0.008
2019-05-26-01:48:16.194814,0.282,-0.158,10.117,-5.800,-13.800,-4.900,-0.961,2.625,-0.070
2019-05-26-01:48:16.304394,0.299,-0.151,10.119,-6.400,-11.700,-3.600,-1.016,2.711,-0.070
2019-05-26-01:48:16.414397,0.275,-0.156,10.131,-6.000,-12.700,-5.400,-1.211,2.719,-0.055
2019-05-26-01:48:16.524223,0.292,-0.158,10.134,-5.400,-12.100,-3.800,-0.773,2.867,-0.227
2019-05-26-01:48:16.634181,0.287,-0.163,10.136,-6.300,-13.300,-4.500,-1.047,2.734,-0.102
2019-05-26-01:48:16.743909,0.299,-0.124,10.117,-5.900,-12.500,-4.600,-1.086,2.625,-0.102
2019-05-26-01:48:16.853650,0.306,-0.165,10.131,-5.100,-12.200,-4.200,-1.359,2.672,-0.094
2019-05-26-01:48:16.963372,0.285,-0.156,10.117,-5.900,-12.300,-2.900,-1.008,2.547,-0.148
2019-05-26-01:48:17.073113,0.292,-0.158,10.122,-4.100,-14.200,-5.400,-0.992,2.984,-0.094
2019-05-26-01:48:17.183128,0.292,-0.151,10.136,-5.900,-12.400,-3.500,-1.188,2.758,-0.203
2019-05-26-01:48:17.292807,0.294,-0.160,10.119,-6.100,-12.500,-4.800,-1.328,2.734,0.062
2019-05-26-01:48:17.402536,0.304,-0.141,10.124,-5.800,-13.000,-5.500,-0.938,2.586,-0.023
2019-05-26-01:48:17.512386,0.301,-0.151,10.105,-5.400,-11.700,-4.200,-0.812,3.102,-0.102
2019-05-26-01:48:17.622442,0.294,-0.160,10.134,-5.600,-12.600,-4.900,-0.727,2.562,-0.094
2019-05-26-01:48:17.732279,0.285,-0.151,10.134,-6.400,-12.700,-4.600,-0.828,2.609,-0.250
2019-05-26-01:48:17.842147,0.294,-0.160,10.124,-4.400,-12.200,-4.100,-0.898,2.797,-0.078
2019-05-26-01:48:17.951965,0.299,-0.158,10.122,-5.800,-12.900,-4.100,-1.078,2.664,0.055
2019-05-26-01:48:18.061848,0.294,-0.153,10.131,-5.800,-11.800,-4.600,-0.898,2.758,-0.047
2019-05-26-01:48:18.171532,0.275,-0.165,10.126,-6.900,-12.400,-4.700,-0.805,2.758,-0.344
2019-05-26-01:48:18.281164,0.299,-0.146,10.143,-5.600,-12.300,-4.800,-1.289,2.766,-0.070
2019-05-26-01:48:18.391108,0.275,-0.144,10.114,-6.100,-12.400,-3.900,-1.039,2.828,-0.391
2019-05-26-01:48:18.501082,0.290,-0.158,10.122,-6.500,-11.900,-4.000,-0.805,2.656,-0.141
2019-05-26-01:48:18.610928,0.292,-0.156,10.119,-5.800,-12.600,-5.100,-0.727,2.773,0.031
2019-05-26-01:48:18.720630,0.297,-0.153,10.126,-7.100,-12.100,-4.000,-0.875,2.719,-0.188
2019-05-26-01:48:18.830651,0.294,-0.156,10.129,-5.000,-12.600,-2.900,-0.797,2.695,-0.227
2019-05-26-01:48:18.940477,0.294,-0.158,10.119,-5.800,-11.600,-5.100,-0.562,2.734,0.133
2019-05-26-01:48:19.050293,0.292,-0.160,10.124,-5.200,-13.300,-3.200,-1.391,2.734,0.031
2019-05-26-01:48:19.159986,0.287,-0.158,10.129,-6.700,-12.200,-2.300,-1.109,2.852,-0.281
2019-05-26-01:48:19.269623,0.287,-0.153,10.126,-5.700,-13.400,-4.000,-1.039,2.547,-0.148
2019-05-26-01:48:19.379499,0.290,-0.151,10.114,-5.700,-11.600,-3.400,-0.828,2.547,-0.148
2019-05-26-01:48:19.489265,0.297,-0.158,10.112,-5.600,-12.800,-5.100,-1.430,2.766,-0.180
2019-05-26-01:48:19.599324,0.301,-0.163,10.112,-5.400,-12.300,-3.600,-1.133,2.562,-0.125
2019-05-26-01:48:19.709040,0.290,-0.160,10.131,-4.900,-13.400,-4.700,-0.914,2.711,-0.031
2019-05-26-01:48:19.818693,0.278,-0.146,10.143,-6.300,-12.400,-4.100,-0.961,2.648,-0.008
2019-05-26-01:48:19.928289,0.304,-0.146,10.136,-5.900,-13.400,-4.700,-0.484,2.711,0.008
2019-05-26-01:48:20.038503,0.313,-0.163,10.119,-5.300,-12.400,-3.300,-0.828,2.672,-0.227
2019-05-26-01:48:20.148280,0.301,-0.151,10.117,-5.800,-11.500,-4.000,-1.070,2.914,-0.023
2019-05-26-01:48:20.257916,0.290,-0.153,10.141,-6.200,-14.200,-3.800,-1.039,2.609,-0.117
2019-05-26-01:48:20.367572,0.294,-0.139,10.131,-5.700,-11.900,-2.200,-0.766,2.570,-0.078
2019-05-26-01:48:20.477421,0.290,-0.148,10.122,-5.400,-13.400,-5.600,-1.305,2.438,-0.234
2019-05-26-01:48:20.587207,0.280,-0.151,10.126,-6.500,-11.800,-4.400,-1.117,2.805,-0.117
2019-05-26-01:48:20.696909,0.297,-0.136,10.107,-6.100,-12.700,-4.100,-1.188,2.938,-0.125
2019-05-26-01:48:20.806923,0.297,-0.148,10.122,-6.200,-11.300,-4.200,-0.945,2.719,-0.344
2019-05-26-01:48:20.916655,0.299,-0.136,10.134,-5.100,-13.400,-3.900,-1.062,2.742,-0.391
2019-05-26-01:48:21.026297,0.292,-0.136,10.131,-6.100,-12.400,-4.000,-1.039,2.484,-0.078
2019-05-26-01:48:21.136079,0.294,-0.158,10.107,-5.300,-12.800,-4.100,-1.289,2.758,-0.359
2019-05-26-01:48:21.246199,0.290,-0.156,10.119,-6.200,-12.100,-5.200,-0.852,2.562,-0.102
2019-05-26-01:48:21.355877,0.285,-0.141,10.124,-6.600,-12.500,-5.100,-0.859,2.617,0.086
2019-05-26-01:48:21.466868,0.301,-0.141,10.112,-4.800,-12.700,-3.300,-1.117,2.797,-0.227
2019-05-26-01:48:21.576878,0.290,-0.151,10.136,-5.800,-12.900,-4.200,-1.188,2.797,-0.180
2019-05-26-01:48:21.686654,0.285,-0.153,10.107,-6.200,-11.500,-4.400,-1.336,2.328,-0.008
2019-05-26-01:48:21.796305,0.290,-0.156,10.110,-6.000,-12.000,-5.800,-1.234,2.844,0.008
2019-05-26-01:48:21.905886,0.290,-0.148,10.112,-5.600,-12.400,-5.000,-0.555,2.633,-0.148
2019-05-26-01:48:22.015882,0.297,-0.144,10.136,-5.600,-12.700,-6.000,-1.219,2.836,0.156
2019-05-26-01:48:22.125772,0.294,-0.156,10.117,-6.100,-13.200,-6.100,-0.750,2.586,0.078
2019-05-26-01:48:22.235433,0.292,-0.156,10.122,-5.200,-12.000,-6.100,-1.086,2.797,-0.125
2019-05-26-01:48:22.347049,0.290,-0.139,10.098,-5.400,-13.900,-3.000,-0.836,2.430,0.039
2019-05-26-01:48:22.457019,0.294,-0.136,10.102,-5.800,-12.100,-4.500,-0.773,2.539,0.109
2019-05-26-01:48:22.566891,0.292,-0.156,10.114,-5.900,-13.900,-5.100,-1.102,2.750,0.039
2019-05-26-01:48:22.676706,0.287,-0.148,10.146,-6.200,-12.200,-2.700,-1.062,2.781,-0.281
2019-05-26-01:48:22.786417,0.292,-0.158,10.136,-6.400,-13.400,-3.400,-1.031,2.664,0.086
2019-05-26-01:48:22.896053,0.294,-0.160,10.126,-5.900,-13.000,-3.700,-1.047,2.852,-0.234
2019-05-26-01:48:23.006040,0.304,-0.139,10.141,-5.700,-13.600,-5.700,-0.789,2.664,0.016
2019-05-26-01:48:23.116039,0.297,-0.153,10.100,-5.800,-11.300,-2.700,-1.070,2.914,-0.344
2019-05-26-01:48:23.226137,0.292,-0.139,10.134,-7.400,-14.300,-2.800,-1.039,2.844,-0.078
2019-05-26-01:48:23.335788,0.280,-0.153,10.129,-6.500,-12.700,-3.900,-0.742,2.742,-0.203
2019-05-26-01:48:23.445664,0.287,-0.148,10.119,-6.200,-12.600,-5.200,-1.070,2.969,-0.250
2019-05-26-01:48:23.555416,0.297,-0.151,10.131,-5.900,-13.300,-5.600,-0.969,2.938,-0.234
2019-05-26-01:48:23.665489,0.299,-0.146,10.114,-6.500,-11.900,-4.700,-0.969,2.945,0.039
2019-05-26-01:48:23.775166,0.273,-0.153,10.141,-6.400,-13.600,-5.000,-1.211,2.734,-0.203
2019-05-26-01:48:23.884719,0.282,-0.165,10.141,-6.600,-12.500,-2.900,-0.914,2.523,-0.023
2019-05-26-01:48:23.994313,0.278,-0.158,10.122,-6.100,-13.600,-4.000,-0.664,2.789,0.031
2019-05-26-01:48:24.104151,0.285,-0.153,10.119,-6.400,-11.600,-4.400,-1.023,2.883,-0.141
2019-05-26-01:48:24.213884,0.297,-0.158,10.112,-5.400,-13.600,-5.200,-1.289,2.547,-0.031
2019-05-26-01:48:24.323481,0.290,-0.163,10.138,-6.300,-11.900,-4.500,-0.938,2.781,-0.297
2019-05-26-01:48:24.433416,0.292,-0.153,10.134,-6.000,-12.200,-4.400,-0.703,2.695,-0.031
2019-05-26-01:48:24.543355,0.287,-0.165,10.122,-6.400,-12.000,-2.800,-0.945,2.883,-0.047
2019-05-26-01:48:24.653064,0.278,-0.163,10.141,-5.700,-12.500,-3.600,-1.008,2.719,-0.234
2019-05-26-01:48:24.762709,0.301,-0.158,10.134,-6.400,-12.000,-3.900,-1.156,3.008,0.039
2019-05-26-01:48:24.872746,0.301,-0.146,10.134,-5.000,-11.900,-4.000,-0.875,2.688,0.305
2019-05-26-01:48:24.982443,0.287,-0.153,10.129,-7.100,-11.900,-2.900,-1.211,2.820,-0.148
2019-05-26-01:48:25.092313,0.294,-0.156,10.131,-6.200,-12.500,-3.900,-1.578,2.695,-0.211
2019-05-26-01:48:25.202001,0.301,-0.134,10.105,-5.800,-11.600,-5.100,-0.945,2.953,-0.008
2019-05-26-01:48:25.311621,0.280,-0.141,10.110,-5.300,-13.600,-3.500,-1.312,2.758,-0.141
2019-05-26-01:48:25.421202,0.297,-0.156,10.131,-6.000,-11.700,-5.100,-1.102,2.672,0.016
2019-05-26-01:48:25.530904,0.294,-0.148,10.126,-5.800,-13.200,-4.000,-0.914,2.758,-0.125
2019-05-26-01:48:25.640979,0.287,-0.165,10.129,-5.800,-11.900,-3.800,-0.797,2.719,-0.070
2019-05-26-01:48:25.750660,0.287,-0.160,10.112,-5.700,-12.100,-4.400,-1.242,2.820,0.078
2019-05-26-01:48:25.860316,0.299,-0.160,10.117,-6.700,-12.300,-3.400,-0.820,2.594,-0.297
2019-05-26-01:48:25.969892,0.287,-0.151,10.134,-5.500,-12.100,-3.300,-1.289,2.523,-0.047
2019-05-26-01:48:26.079826,0.292,-0.163,10.129,-5.800,-12.200,-2.600,-1.430,2.797,-0.148
2019-05-26-01:48:26.189488,0.282,-0.144,10.093,-6.100,-13.100,-5.300,-1.016,2.539,0.102
2019-05-26-01:48:26.299078,0.285,-0.139,10.119,-6.300,-12.000,-5.200,-0.914,2.539,-0.211
2019-05-26-01:48:26.408856,0.299,-0.148,10.114,-5.200,-12.700,-4.600,-0.750,2.742,-0.031
2019-05-26-01:48:26.520292,0.304,-0.158,10.129,-6.200,-11.000,-3.300,-1.039,2.781,-0.078
2019-05-26-01:48:26.630291,0.282,-0.146,10.122,-5.400,-14.100,-5.200,-0.797,2.805,-0.328
2019-05-26-01:48:26.739978,0.273,-0.151,10.131,-6.700,-11.900,-3.800,-0.648,2.844,-0.117
2019-05-26-01:48:26.849907,0.292,-0.158,10.138,-5.400,-13.000,-4.700,-0.867,2.453,-0.102
2019-05-26-01:48:26.959517,0.299,-0.153,10.124,-6.600,-11.000,-3.500,-1.023,2.844,0.125
2019-05-26-01:48:27.069335,0.309,-0.156,10.105,-6.100,-13.100,-4.200,-1.328,2.523,-0.281
2019-05-26-01:48:27.178955,0.282,-0.148,10.134,-5.900,-11.800,-2.500,-1.156,2.805,-0.070
2019-05-26-01:48:27.288871,0.292,-0.163,10.114,-6.800,-12.800,-6.200,-0.930,2.734,0.016
2019-05-26-01:48:27.398587,0.287,-0.148,10.117,-5.800,-11.400,-3.200,-0.844,2.594,-0.117
2019-05-26-01:48:27.508216,0.294,-0.148,10.122,-5.300,-13.000,-4.300,-1.133,2.828,-0.250
2019-05-26-01:48:27.617999,0.275,-0.141,10.141,-6.200,-10.400,-3.600,-1.023,2.492,0.125
2019-05-26-01:48:27.727660,0.297,-0.144,10.122,-6.400,-13.900,-3.900,-1.172,2.672,0.062
2019-05-26-01:48:27.837282,0.285,-0.165,10.124,-6.800,-10.900,-2.100,-0.938,2.719,-0.117
2019-05-26-01:48:27.946782,0.304,-0.146,10.110,-5.600,-12.700,-4.000,-0.852,2.609,-0.078
2019-05-26-01:48:28.056664,0.304,-0.165,10.105,-6.600,-10.800,-4.000,-0.945,2.609,-0.117
2019-05-26-01:48:28.166336,0.292,-0.153,10.102,-5.800,-13.300,-3.000,-0.703,2.625,-0.125
2019-05-26-01:48:28.275980,0.292,-0.160,10.129,-5.600,-12.200,-4.900,-1.109,2.758,-0.125
2019-05-26-01:48:28.385579,0.285,-0.158,10.126,-6.700,-11.400,-5.300,-1.227,2.781,-0.344
2019-05-26-01:48:28.495449,0.290,-0.165,10.112,-5.200,-12.700,-4.400,-0.805,2.547,-0.328
2019-05-26-01:48:28.605246,0.282,-0.148,10.119,-5.400,-12.000,-4.100,-0.867,2.758,-0.250
2019-05-26-01:48:28.714870,0.294,-0.146,10.124,-6.400,-12.700,-4.300,-1.305,2.680,-0.031
2019-05-26-01:48:28.824390,0.299,-0.148,10.107,-5.100,-12.500,-3.100,-1.492,2.883,-0.102
2019-05-26-01:48:28.933946,0.275,-0.156,10.129,-6.000,-12.400,-4.200,-0.672,2.633,-0.102
2019-05-26-01:48:29.043562,0.290,-0.175,10.114,-6.100,-13.200,-2.700,-1.203,2.586,-0.164
2019-05-26-01:48:29.153152,0.294,-0.156,10.124,-5.700,-12.100,-3.000,-0.922,2.797,0.109
2019-05-26-01:48:29.263071,0.287,-0.146,10.112,-6.900,-12.000,-2.800,-0.961,2.609,-0.273
2019-05-26-01:48:29.372694,0.290,-0.144,10.126,-4.900,-13.100,-4.000,-1.234,2.547,-0.227
2019-05-26-01:48:29.482464,0.285,-0.153,10.114,-5.800,-13.400,-4.200,-1.141,2.625,-0.055
2019-05-26-01:48:29.592297,0.299,-0.148,10.153,-5.400,-12.900,-2.900,-1.266,2.672,0.078
2019-05-26-01:48:29.702285,0.301,-0.158,10.134,-5.500,-12.600,-4.600,-0.867,2.844,0.008
2019-05-26-01:48:29.812455,0.278,-0.153,10.119,-6.400,-12.800,-2.100,-0.727,2.820,-0.227
2019-05-26-01:48:29.922240,0.299,-0.141,10.136,-6.100,-13.400,-4.000,-1.047,2.688,0.102
2019-05-26-01:48:30.031904,0.287,-0.148,10.126,-6.500,-11.700,-4.600,-0.773,2.633,-0.203
2019-05-26-01:48:30.141640,0.290,-0.151,10.119,-5.100,-12.800,-4.400,-1.453,2.680,-0.008
2019-05-26-01:48:30.251203,0.294,-0.146,10.134,-5.900,-12.300,-3.300,-0.914,2.656,0.008
2019-05-26-01:48:30.360725,0.285,-0.153,10.124,-5.600,-12.800,-3.500,-0.969,2.484,-0.102
2019-05-26-01:48:30.470543,0.280,-0.144,10.117,-6.900,-12.400,-3.800,-1.016,2.906,0.008
2019-05-26-01:48:30.580410,0.280,-0.136,10.122,-4.500,-12.600,-4.900,-0.633,2.820,-0.188
2019-05-26-01:48:30.690024,0.299,-0.139,10.126,-6.100,-14.100,-3.300,-0.875,2.672,-0.320
2019-05-26-01:48:30.801812,0.287,-0.146,10.134,-5.700,-13.800,-4.200,-1.234,2.656,-0.094
2019-05-26-01:48:30.911809,0.297,-0.163,10.117,-5.500,-11.800,-3.300,-1.000,2.688,0.062
2019-05-26-01:48:31.021504,0.294,-0.160,10.129,-6.000,-12.600,-4.500,-0.992,2.844,-0.203
2019-05-26-01:48:31.131252,0.287,-0.141,10.119,-6.200,-11.600,-1.900,-0.938,2.586,-0.008
2019-05-26-01:48:31.240831,0.285,-0.139,10.112,-6.300,-11.200,-1.100,-1.281,2.414,-0.023
2019-05-26-01:48:31.350403,0.290,-0.151,10.126,-6.200,-14.300,-5.000,-0.461,2.719,-0.141
2019-05-26-01:48:31.460010,0.301,-0.156,10.107,-6.000,-12.000,-3.600,-1.188,2.539,-0.008
2019-05-26-01:48:31.569674,0.299,-0.160,10.124,-6.500,-13.700,-3.900,-0.961,2.484,-0.383
2019-05-26-01:48:31.679529,0.273,-0.148,10.136,-5.800,-12.800,-3.800,-0.758,2.711,0.016
2019-05-26-01:48:31.789190,0.294,-0.148,10.122,-6.900,-13.800,-4.300,-0.914,2.805,-0.188
2019-05-26-01:48:31.898723,0.266,-0.156,10.107,-6.300,-11.800,-5.600,-0.820,2.477,-0.367
2019-05-26-01:48:32.009021,0.294,-0.156,10.119,-5.200,-14.100,-3.500,-0.898,2.625,-0.430
2019-05-26-01:48:32.118823,0.306,-0.139,10.110,-6.200,-12.200,-4.300,-0.820,2.930,-0.141
2019-05-26-01:48:32.228496,0.292,-0.148,10.124,-5.600,-13.800,-3.900,-0.656,2.805,-0.203
2019-05-26-01:48:32.338013,0.287,-0.148,10.098,-5.500,-11.800,-4.500,-0.891,2.633,0.008
2019-05-26-01:48:32.447806,0.297,-0.148,10.117,-5.900,-13.600,-3.200,-0.703,2.852,-0.094
2019-05-26-01:48:32.557507,0.285,-0.151,10.122,-6.900,-12.200,-4.400,-1.047,2.719,-0.047
2019-05-26-01:48:32.667263,0.280,-0.151,10.122,-5.700,-13.300,-2.700,-0.914,2.609,-0.031
2019-05-26-01:48:32.776971,0.287,-0.146,10.136,-6.700,-13.700,-3.400,-0.656,2.711,-0.148
2019-05-26-01:48:32.886958,0.297,-0.151,10.122,-6.100,-13.600,-3.000,-1.180,2.477,-0.273
2019-05-26-01:48:32.996805,0.299,-0.141,10.126,-5.800,-11.900,-2.300,-0.750,2.531,0.062
2019-05-26-01:48:33.106550,0.294,-0.141,10.124,-6.500,-12.400,-3.100,-0.977,2.641,0.109
2019-05-26-01:48:33.216776,0.292,-0.156,10.131,-4.600,-13.300,-2.900,-0.992,2.773,0.133
2019-05-26-01:48:33.326386,0.278,-0.165,10.117,-6.200,-11.800,-3.300,-1.258,2.484,-0.070
2019-05-26-01:48:33.436092,0.280,-0.151,10.155,-5.700,-12.800,-3.400,-0.797,2.562,-0.250
2019-05-26-01:48:33.545796,0.292,-0.156,10.117,-5.400,-12.800,-4.300,-1.438,2.812,0.016
2019-05-26-01:48:33.655388,0.275,-0.151,10.146,-6.300,-12.000,-2.500,-0.805,2.617,0.148
2019-05-26-01:48:33.764953,0.285,-0.146,10.126,-5.800,-14.200,-5.100,-1.070,2.477,0.008
2019-05-26-01:48:33.874507,0.282,-0.165,10.131,-6.100,-11.600,-3.900,-0.953,2.883,0.031
2019-05-26-01:48:33.984072,0.285,-0.158,10.124,-6.000,-14.300,-4.300,-1.000,2.734,0.016
2019-05-26-01:48:34.094086,0.292,-0.163,10.129,-6.400,-12.500,-3.200,-0.922,2.773,0.102
2019-05-26-01:48:34.203788,0.304,-0.144,10.126,-4.600,-13.900,-4.200,-0.766,2.883,-0.008
2019-05-26-01:48:34.313324,0.292,-0.151,10.153,-6.600,-11.900,-3.500,-1.281,2.977,-0.227
2019-05-26-01:48:34.423189,0.282,-0.141,10.143,-5.600,-14.500,-4.400,-0.852,2.906,0.109
2019-05-26-01:48:34.532858,0.297,-0.163,10.138,-7.000,-12.800,-3.400,-0.828,2.477,-0.148
2019-05-26-01:48:34.642596,0.301,-0.167,10.138,-7.000,-13.600,-4.800,-1.234,2.828,-0.078
2019-05-26-01:48:34.752270,0.292,-0.148,10.124,-6.000,-12.600,-4.700,-0.844,2.586,-0.078
2019-05-26-01:48:34.862175,0.292,-0.144,10.124,-6.200,-13.900,-4.400,-1.062,2.844,-0.258
2019-05-26-01:48:34.971797,0.290,-0.148,10.126,-6.500,-11.800,-2.700,-0.961,2.781,-0.117
2019-05-26-01:48:35.081556,0.321,-0.156,10.117,-5.600,-14.800,-4.200,-0.562,2.797,-0.188
2019-05-26-01:48:35.191136,0.304,-0.156,10.107,-6.800,-12.500,-3.300,-1.406,2.695,-0.047
2019-05-26-01:48:35.301065,0.287,-0.170,10.141,-6.400,-14.000,-3.900,-0.898,2.648,-0.094
2019-05-26-01:48:35.410746,0.292,-0.151,10.124,-6.900,-13.200,-2.600,-1.047,2.695,-0.406
2019-05-26-01:48:35.520464,0.297,-0.141,10.122,-6.200,-11.800,-2.900,-0.836,2.859,0.148
2019-05-26-01:48:35.630509,0.287,-0.144,10.126,-5.500,-12.700,-4.500,-1.117,2.516,0.086
2019-05-26-01:48:35.740237,0.299,-0.141,10.110,-5.500,-12.300,-3.800,-1.156,2.508,-0.227
2019-05-26-01:48:35.849789,0.292,-0.151,10.117,-5.000,-13.300,-4.700,-1.164,2.664,0.078
2019-05-26-01:48:35.959364,0.294,-0.151,10.117,-5.600,-12.200,-2.300,-0.852,2.711,-0.117
2019-05-26-01:48:36.069121,0.294,-0.158,10.122,-6.600,-13.600,-4.400,-0.922,2.766,-0.180
2019-05-26-01:48:36.178736,0.299,-0.139,10.114,-6.700,-12.000,-4.500,-0.969,2.805,-0.008
2019-05-26-01:48:36.288258,0.290,-0.141,10.126,-5.600,-13.700,-2.400,-0.797,2.719,-0.297
2019-05-26-01:48:36.397749,0.294,-0.163,10.117,-5.900,-12.500,-2.800,-1.094,2.734,-0.078
2019-05-26-01:48:36.507527,0.292,-0.151,10.124,-5.600,-12.800,-5.300,-1.008,2.852,-0.320
2019-05-26-01:48:36.617331,0.287,-0.153,10.126,-5.600,-12.400,-3.100,-1.086,2.867,-0.094
2019-05-26-01:48:36.726960,0.299,-0.153,10.119,-5.600,-12.600,-4.500,-0.719,2.672,-0.305
2019-05-26-01:48:36.836814,0.292,-0.158,10.148,-6.300,-13.700,-2.900,-0.875,2.695,-0.125
2019-05-26-01:48:36.946404,0.292,-0.144,10.112,-4.900,-12.900,-3.000,-0.539,2.680,-0.234
2019-05-26-01:48:37.056201,0.292,-0.151,10.110,-4.900,-12.800,-3.800,-0.594,2.641,0.172
2019-05-26-01:48:37.165789,0.275,-0.156,10.131,-5.800,-13.300,-4.800,-0.555,2.523,-0.023
2019-05-26-01:48:37.275311,0.290,-0.144,10.122,-4.800,-12.700,-3.700,-1.047,2.906,-0.305
2019-05-26-01:48:37.384800,0.294,-0.144,10.122,-5.300,-13.000,-2.400,-0.781,2.758,-0.148
2019-05-26-01:48:37.494396,0.299,-0.148,10.117,-5.500,-12.900,-3.800,-0.672,2.953,-0.164
2019-05-26-01:48:37.604130,0.297,-0.144,10.114,-6.100,-14.600,-2.700,-0.852,2.633,-0.141
2019-05-26-01:48:37.714081,0.292,-0.144,10.122,-6.100,-12.900,-2.800,-1.430,2.797,0.125
2019-05-26-01:48:37.823739,0.273,-0.139,10.122,-5.800,-13.200,-3.000,-0.836,2.961,0.031
2019-05-26-01:48:37.933484,0.292,-0.156,10.131,-6.300,-11.700,-3.400,-0.812,2.562,0.016
2019-05-26-01:48:38.043528,0.280,-0.148,10.114,-6.800,-13.300,-4.500,-1.023,2.711,-0.102
2019-05-26-01:48:38.153195,0.297,-0.156,10.122,-5.400,-12.300,-4.200,-0.969,2.703,0.039
2019-05-26-01:48:38.262759,0.282,-0.153,10.110,-5.700,-14.000,-3.800,-0.695,2.367,-0.102
2019-05-26-01:48:38.372361,0.280,-0.175,10.131,-5.500,-13.700,-4.400,-1.258,2.781,-0.008
2019-05-26-01:48:38.482195,0.294,-0.146,10.107,-5.500,-13.300,-5.200,-1.406,2.805,-0.047
2019-05-26-01:48:38.591979,0.297,-0.158,10.107,-5.100,-12.200,-4.700,-1.016,2.906,0.016
2019-05-26-01:48:38.701570,0.294,-0.139,10.122,-4.800,-13.600,-4.100,-1.047,2.883,-0.023
2019-05-26-01:48:38.811092,0.294,-0.132,10.117,-6.100,-11.800,-3.900,-0.953,2.812,0.125
2019-05-26-01:48:38.920983,0.292,-0.148,10.122,-5.300,-13.700,-4.100,-1.008,2.797,-0.141
2019-05-26-01:48:39.030696,0.306,-0.146,10.119,-6.600,-12.000,-4.600,-0.945,2.594,-0.180
2019-05-26-01:48:39.142528,0.285,-0.144,10.126,-6.900,-13.700,-4.700,-1.188,2.914,-0.234
2019-05-26-01:48:39.252518,0.282,-0.148,10.155,-5.800,-12.000,-4.200,-1.008,2.906,-0.406
2019-05-26-01:48:39.362223,0.282,-0.148,10.122,-5.900,-12.800,-4.400,-1.383,2.648,-0.070
2019-05-26-01:48:39.471959,0.290,-0.139,10.148,-6.200,-11.300,-3.300,-1.211,2.625,0.039
2019-05-26-01:48:39.581629,0.292,-0.144,10.117,-6.100,-13.200,-5.100,-0.680,2.766,-0.164
2019-05-26-01:48:39.691533,0.292,-0.156,10.122,-6.100,-12.700,-4.900,-1.359,2.781,-0.047
2019-05-26-01:48:39.801250,0.280,-0.148,10.134,-5.000,-12.900,-5.100,-1.023,2.930,-0.031
2019-05-26-01:48:39.910805,0.285,-0.158,10.129,-6.600,-11.600,-3.200,-1.086,2.844,-0.188
2019-05-26-01:48:40.020700,0.294,-0.146,10.131,-6.000,-13.500,-4.300,-1.086,2.508,-0.211
2019-05-26-01:48:40.130718,0.306,-0.153,10.134,-5.700,-12.400,-3.100,-0.898,2.797,-0.008
2019-05-26-01:48:40.240481,0.306,-0.136,10.126,-6.800,-11.900,-3.400,-1.148,2.930,0.211
2019-05-26-01:48:40.350087,0.278,-0.160,10.143,-6.000,-13.100,-4.200,-0.945,2.648,-0.305
2019-05-26-01:48:40.459987,0.297,-0.156,10.138,-6.700,-11.700,-3.800,-1.328,2.742,-0.227
2019-05-26-01:48:40.569755,0.282,-0.146,10.138,-5.900,-13.200,-6.300,-0.938,2.656,-0.281
2019-05-26-01:48:40.679377,0.301,-0.139,10.112,-5.100,-12.400,-4.200,-1.023,2.961,0.039
2019-05-26-01:48:40.788923,0.301,-0.156,10.126,-5.500,-12.500,-4.800,-1.023,2.844,-0.383
2019-05-26-01:48:40.898522,0.292,-0.160,10.129,-6.000,-12.900,-3.100,-1.047,2.711,0.102
2019-05-26-01:48:41.008082,0.287,-0.139,10.119,-5.800,-12.700,-3.800,-1.305,2.594,-0.047
2019-05-26-01:48:41.117861,0.282,-0.151,10.117,-6.400,-12.700,-4.000,-0.805,2.500,0.062
2019-05-26-01:48:41.227905,0.299,-0.153,10.122,-6.600,-12.100,-4.400,-0.633,2.617,0.188
2019-05-26-01:48:41.337756,0.299,-0.151,10.114,-5.800,-14.400,-4.600,-0.891,2.844,-0.125
2019-05-26-01:48:41.447525,0.299,-0.151,10.126,-5.000,-11.200,-2.800,-1.109,2.523,-0.047
2019-05-26-01:48:41.557200,0.297,-0.144,10.129,-5.400,-12.900,-4.800,-1.250,2.758,-0.094
2019-05-26-01:48:41.667155,0.301,-0.144,10.122,-6.000,-12.000,-3.400,-0.938,2.797,-0.203
2019-05-26-01:48:41.776773,0.309,-0.151,10.126,-5.700,-12.500,-4.600,-1.117,2.828,-0.203
2019-05-26-01:48:41.886291,0.297,-0.158,10.134,-6.000,-12.200,-4.800,-0.383,2.758,-0.164
2019-05-26-01:48:41.995847,0.282,-0.139,10.148,-6.200,-12.200,-6.900,-1.094,2.664,0.016
2019-05-26-01:48:42.105708,0.280,-0.172,10.098,-6.300,-11.500,-4.500,-1.180,2.852,-0.125
2019-05-26-01:48:42.215339,0.287,-0.153,10.136,-6.200,-14.000,-5.600,-0.984,2.844,-0.188
2019-05-26-01:48:42.324855,0.301,-0.160,10.114,-4.900,-13.000,-5.500,-1.078,2.758,0.039
2019-05-26-01:48:42.435094,0.292,-0.151,10.122,-6.300,-11.600,-4.200,-1.047,2.523,-0.320
2019-05-26-01:48:42.544809,0.292,-0.146,10.119,-6.200,-13.500,-5.400,-0.773,2.781,-0.055
2019-05-26-01:48:42.654441,0.292,-0.158,10.124,-6.400,-11.700,-3.900,-1.430,2.719,-0.203
2019-05-26-01:48:42.764157,0.299,-0.146,10.129,-6.200,-14.400,-4.700,-0.938,2.461,0.008
2019-05-26-01:48:42.874184,0.299,-0.165,10.131,-6.100,-11.600,-4.400,-0.914,2.867,-0.211
2019-05-26-01:48:42.984096,0.294,-0.153,10.122,-6.200,-13.800,-4.500,-0.930,2.961,0.102
2019-05-26-01:48:43.094050,0.299,-0.146,10.124,-6.500,-11.800,-2.800,-0.742,2.766,-0.102
2019-05-26-01:48:43.203804,0.282,-0.141,10.124,-5.700,-14.200,-4.900,-0.984,2.758,0.008
2019-05-26-01:48:43.313351,0.280,-0.146,10.134,-5.700,-11.200,-4.300,-1.438,2.703,0.016
2019-05-26-01:48:43.422871,0.285,-0.156,10.119,-5.200,-13.100,-4.600,-1.266,3.055,-0.227
2019-05-26-01:48:43.532458,0.301,-0.151,10.126,-7.000,-12.600,-3.700,-0.953,2.820,0.039
2019-05-26-01:48:43.642425,0.294,-0.158,10.122,-6.100,-13.000,-4.700,-0.945,2.594,-0.273
2019-05-26-01:48:43.752167,0.287,-0.160,10.110,-6.000,-12.200,-4.300,-1.344,2.961,0.086
2019-05-26-01:48:43.861715,0.301,-0.146,10.114,-6.500,-13.100,-3.700,-0.922,2.836,0.078
2019-05-26-01:48:43.971230,0.292,-0.139,10.136,-6.300,-13.300,-4.500,-0.602,2.695,-0.305
2019-05-26-01:48:44.081036,0.309,-0.160,10.126,-6.100,-12.500,-4.000,-0.828,2.836,0.031
2019-05-26-01:48:44.190668,0.306,-0.156,10.102,-6.200,-11.900,-3.100,-1.070,2.797,-0.031
2019-05-26-01:48:44.300284,0.292,-0.153,10.114,-5.600,-13.100,-2.700,-0.852,2.719,-0.078
2019-05-26-01:48:44.409856,0.294,-0.167,10.107,-5.600,-12.200,-3.600,-1.023,2.977,-0.148
2019-05-26-01:48:44.519660,0.294,-0.148,10.150,-5.700,-13.200,-4.800,-0.719,2.594,-0.125
2019-05-26-01:48:44.629398,0.306,-0.156,10.124,-7.400,-12.500,-4.300,-1.141,2.781,-0.297
2019-05-26-01:48:44.739015,0.290,-0.167,10.131,-6.100,-12.800,-5.500,-0.852,2.695,-0.211
2019-05-26-01:48:44.848861,0.292,-0.156,10.129,-6.800,-12.800,-4.700,-0.742,2.594,-0.297
2019-05-26-01:48:44.958588,0.292,-0.144,10.114,-5.400,-12.700,-3.200,-0.852,2.539,-0.281
2019-05-26-01:48:45.068449,0.287,-0.165,10.129,-5.700,-12.600,-4.000,-1.180,2.805,-0.070
2019-05-26-01:48:45.178381,0.285,-0.151,10.112,-6.600,-12.400,-3.200,-0.836,2.859,0.133
2019-05-26-01:48:45.288469,0.294,-0.148,10.114,-5.800,-12.200,-3.900,-1.109,2.930,-0.055
2019-05-26-01:48:45.398075,0.292,-0.139,10.148,-6.100,-13.500,-4.900,-0.656,2.734,-0.320
2019-05-26-01:48:45.507736,0.292,-0.151,10.105,-6.100,-12.000,-3.900,-0.953,3.055,0.102
2019-05-26-01:48:45.617450,0.297,-0.148,10.138,-6.500,-12.600,-4.300,-0.961,2.742,-0.102
2019-05-26-01:48:45.727058,0.287,-0.156,10.126,-5.600,-10.400,-3.300,-0.797,2.883,-0.055
2019-05-26-01:48:45.836673,0.282,-0.148,10.124,-5.400,-13.800,-4.100,-0.703,2.852,-0.117
2019-05-26-01:48:45.946233,0.280,-0.163,10.119,-6.800,-11.100,-2.700,-1.023,2.742,-0.188
2019-05-26-01:48:46.056072,0.301,-0.139,10.134,-5.800,-13.000,-4.400,-0.852,2.891,-0.203
2019-05-26-01:48:46.165736,0.299,-0.146,10.131,-6.200,-11.700,-3.800,-0.594,2.812,0.102
2019-05-26-01:48:46.275592,0.292,-0.148,10.110,-5.700,-13.400,-3.500,-1.266,2.484,-0.078
2019-05-26-01:48:46.385232,0.282,-0.144,10.136,-5.900,-11.000,-3.900,-0.828,2.711,0.031
2019-05-26-01:48:46.495171,0.273,-0.165,10.131,-5.400,-12.800,-4.300,-0.633,2.445,0.188
2019-05-26-01:48:46.604942,0.287,-0.156,10.114,-6.400,-12.000,-4.400,-1.414,2.578,0.055
2019-05-26-01:48:46.714563,0.297,-0.139,10.134,-6.300,-12.800,-4.600,-0.578,2.906,-0.055
2019-05-26-01:48:46.825729,0.290,-0.156,10.138,-6.100,-11.400,-3.000,-1.289,3.039,-0.070
2019-05-26-01:48:46.935725,0.297,-0.158,10.134,-4.900,-13.800,-5.100,-1.023,2.734,-0.234
2019-05-26-01:48:47.045711,0.301,-0.153,10.136,-6.700,-11.300,-3.900,-0.672,2.633,-0.297
2019-05-26-01:48:47.155396,0.285,-0.158,10.117,-5.100,-13.200,-5.000,-1.117,2.555,0.031
2019-05-26-01:48:47.265310,0.290,-0.163,10.122,-5.500,-11.500,-3.500,-0.664,2.703,0.266
2019-05-26-01:48:47.375200,0.294,-0.160,10.117,-5.400,-12.500,-4.400,-1.227,2.758,-0.117
2019-05-26-01:48:47.485030,0.287,-0.153,10.107,-5.400,-11.800,-4.300,-0.898,2.852,-0.188
2019-05-26-01:48:47.596989,0.285,-0.144,10.117,-6.000,-13.700,-4.200,-0.867,2.992,-0.250
2019-05-26-01:48:47.706880,0.280,-0.160,10.126,-6.500,-12.800,-3.400,-1.250,2.336,-0.023
2019-05-26-01:48:47.816689,0.301,-0.151,10.143,-5.400,-13.000,-3.100,-1.023,2.969,-0.305
2019-05-26-01:48:47.926287,0.287,-0.156,10.126,-6.400,-12.000,-5.300,-0.938,2.539,-0.047
2019-05-26-01:48:48.036126,0.304,-0.163,10.119,-5.700,-11.700,-5.500,-0.945,2.539,-0.328
2019-05-26-01:48:48.146029,0.278,-0.156,10.119,-6.100,-11.900,-4.100,-0.703,2.828,-0.180
2019-05-26-01:48:48.255750,0.285,-0.153,10.124,-6.000,-12.500,-5.700,-0.961,2.625,-0.070
2019-05-26-01:48:48.365328,0.280,-0.167,10.110,-6.000,-11.500,-4.900,-0.648,2.867,-0.188
2019-05-26-01:48:48.475244,0.294,-0.148,10.114,-5.800,-12.200,-4.400,-0.938,2.719,-0.141
2019-05-26-01:48:48.585190,0.304,-0.148,10.112,-5.400,-12.000,-3.900,-0.773,2.922,0.125
2019-05-26-01:48:48.694788,0.297,-0.153,10.126,-5.400,-13.800,-4.900,-0.898,2.609,-0.281
2019-05-26-01:48:48.804319,0.290,-0.163,10.114,-5.400,-11.800,-4.400,-1.188,2.562,-0.180
2019-05-26-01:48:48.914235,0.270,-0.163,10.124,-5.200,-12.600,-5.000,-0.969,2.625,-0.414
2019-05-26-01:48:49.023976,0.294,-0.156,10.124,-6.700,-12.600,-4.700,-0.852,2.547,-0.117
2019-05-26-01:48:49.133856,0.285,-0.156,10.129,-6.200,-13.500,-4.500,-0.781,2.781,-0.094
2019-05-26-01:48:49.243467,0.299,-0.156,10.134,-6.200,-12.000,-4.400,-1.312,2.742,-0.273
2019-05-26-01:48:49.352994,0.280,-0.163,10.112,-6.300,-12.200,-6.400,-1.445,2.656,-0.148
2019-05-26-01:48:49.462743,0.292,-0.144,10.122,-5.500,-10.800,-3.900,-0.797,2.883,-0.328
2019-05-26-01:48:49.572466,0.294,-0.167,10.138,-5.500,-13.700,-5.300,-0.766,2.680,-0.297
2019-05-26-01:48:49.682443,0.280,-0.153,10.110,-6.100,-10.900,-4.200,-0.539,2.734,-0.125
2019-05-26-01:48:49.792191,0.278,-0.153,10.126,-5.300,-12.900,-4.100,-0.711,2.641,0.016
2019-05-26-01:48:49.901724,0.292,-0.153,10.112,-6.500,-12.400,-4.200,-1.008,2.695,-0.031
2019-05-26-01:48:50.011280,0.294,-0.144,10.124,-5.400,-13.900,-3.300,-0.969,2.781,-0.055
2019-05-26-01:48:50.121191,0.294,-0.156,10.136,-6.100,-11.100,-2.900,-0.844,2.719,-0.070
2019-05-26-01:48:50.230808,0.306,-0.156,10.143,-6.500,-11.600,-4.100,-0.844,2.719,-0.141
2019-05-26-01:48:50.340588,0.282,-0.160,10.117,-5.500,-13.300,-5.400,-0.555,2.891,-0.148
2019-05-26-01:48:50.450471,0.282,-0.151,10.105,-6.600,-10.900,-2.500,-0.867,2.953,-0.227
2019-05-26-01:48:50.560440,0.294,-0.158,10.110,-6.300,-13.100,-4.800,-1.258,2.758,-0.227
2019-05-26-01:48:50.670080,0.294,-0.153,10.134,-6.400,-12.000,-2.700,-0.875,2.539,-0.078
2019-05-26-01:48:50.779662,0.304,-0.153,10.124,-5.900,-13.200,-4.800,-0.586,2.750,0.062
2019-05-26-01:48:50.889583,0.278,-0.156,10.129,-6.700,-12.100,-4.300,-1.305,2.781,-0.008
2019-05-26-01:48:50.999171,0.285,-0.160,10.122,-6.200,-14.300,-5.400,-1.117,2.734,-0.211
2019-05-26-01:48:51.108980,0.287,-0.158,10.148,-6.500,-12.300,-4.500,-0.852,2.656,-0.055
2019-05-26-01:48:51.218689,0.280,-0.153,10.129,-5.600,-12.500,-5.300,-1.188,2.656,-0.094
2019-05-26-01:48:51.328688,0.304,-0.141,10.129,-5.800,-12.700,-3.800,-1.117,2.719,-0.258
2019-05-26-01:48:51.438392,0.299,-0.141,10.117,-6.400,-13.300,-4.000,-0.656,2.711,-0.070
2019-05-26-01:48:51.548068,0.292,-0.156,10.119,-6.400,-12.500,-6.300,-1.328,2.609,-0.188
2019-05-26-01:48:51.657677,0.299,-0.151,10.102,-6.400,-12.400,-6.100,-0.906,2.711,0.031
2019-05-26-01:48:51.767241,0.304,-0.165,10.117,-6.500,-11.700,-3.800,-0.922,2.914,-0.078
2019-05-26-01:48:51.876828,0.290,-0.132,10.114,-6.100,-12.500,-4.400,-0.562,2.883,-0.180
2019-05-26-01:48:51.986360,0.301,-0.151,10.112,-5.600,-13.500,-3.800,-0.812,3.055,-0.180
2019-05-26-01:48:52.096352,0.297,-0.160,10.134,-6.000,-11.500,-3.700,-1.125,2.820,0.086
2019-05-26-01:48:52.206072,0.287,-0.160,10.124,-5.300,-13.100,-4.900,-0.781,3.000,-0.055
2019-05-26-01:48:52.315683,0.297,-0.141,10.126,-7.800,-12.800,-4.600,-1.062,2.422,-0.047
2019-05-26-01:48:52.425212,0.304,-0.144,10.138,-6.000,-12.500,-4.900,-1.016,2.695,-0.125
2019-05-26-01:48:52.535093,0.285,-0.148,10.124,-7.500,-12.900,-6.000,-0.672,2.648,-0.078
2019-05-26-01:48:52.644847,0.294,-0.156,10.126,-6.000,-12.000,-3.700,-0.828,2.852,-0.250
2019-05-26-01:48:52.754468,0.294,-0.158,10.110,-6.200,-12.700,-4.100,-1.117,2.562,0.086
2019-05-26-01:48:52.864060,0.294,-0.141,10.124,-6.400,-11.900,-3.200,-1.250,2.477,-0.180
2019-05-26-01:48:52.973841,0.304,-0.151,10.124,-6.700,-12.500,-4.000,-0.914,2.633,-0.273
2019-05-26-01:48:53.083770,0.297,-0.153,10.134,-6.200,-11.600,-4.700,-1.039,2.953,-0.023
2019-05-26-01:48:53.193479,0.282,-0.153,10.110,-5.600,-12.600,-4.900,-1.164,2.508,-0.055
2019-05-26-01:48:53.303414,0.280,-0.156,10.110,-5.800,-11.300,-4.400,-1.141,2.992,-0.258
2019-05-26-01:48:53.413027,0.285,-0.156,10.126,-5.700,-13.800,-5.200,-1.086,2.570,-0.117
2019-05-26-01:48:53.522789,0.309,-0.151,10.119,-6.600,-10.500,-3.400,-0.773,2.680,-0.055
2019-05-26-01:48:53.632559,0.304,-0.148,10.119,-5.600,-12.500,-3.800,-0.609,2.609,-0.188
2019-05-26-01:48:53.742493,0.285,-0.153,10.143,-5.900,-11.200,-3.700,-0.766,2.648,-0.070
2019-05-26-01:48:53.852160,0.292,-0.148,10.122,-5.800,-13.000,-5.500,-0.945,2.391,0.039
2019-05-26-01:48:53.961697,0.299,-0.146,10.122,-6.600,-10.600,-4.900,-1.062,2.867,-0.477
2019-05-26-01:48:54.071405,0.290,-0.146,10.126,-6.000,-13.400,-3.500,-1.164,2.586,-0.211
2019-05-26-01:48:54.180976,0.299,-0.156,10.117,-6.000,-11.900,-3.400,-1.016,2.797,-0.117
2019-05-26-01:48:54.290486,0.292,-0.148,10.141,-5.300,-13.200,-5.400,-0.969,2.625,-0.070
2019-05-26-01:48:54.400043,0.287,-0.153,10.119,-5.500,-10.700,-6.000,-1.383,2.648,-0.188
2019-05-26-01:48:54.509943,0.304,-0.151,10.122,-5.800,-11.300,-1.600,-0.922,2.680,0.008
2019-05-26-01:48:54.619889,0.299,-0.156,10.138,-7.000,-13.300,-4.200,-1.258,2.969,0.031
2019-05-26-01:48:54.729573,0.294,-0.146,10.131,-5.900,-12.000,-4.200,-0.727,2.695,-0.031
2019-05-26-01:48:54.839117,0.285,-0.153,10.124,-6.700,-13.200,-4.900,-0.875,2.609,-0.141
2019-05-26-01:48:54.949017,0.282,-0.144,10.119,-6.700,-12.000,-4.600,-0.781,3.086,-0.055
2019-05-26-01:48:55.058780,0.282,-0.134,10.124,-5.900,-13.400,-6.100,-0.852,2.648,-0.258
2019-05-26-01:48:55.168473,0.297,-0.134,10.112,-7.100,-10.900,-2.800,-0.906,2.562,0.031
2019-05-26-01:48:55.278128,0.299,-0.151,10.117,-5.100,-13.100,-6.300,-1.156,2.891,-0.211
2019-05-26-01:48:55.387653,0.275,-0.146,10.117,-6.800,-12.100,-4.700,-0.961,2.547,-0.047
2019-05-26-01:48:55.497534,0.285,-0.148,10.122,-6.300,-12.200,-5.000,-0.969,2.719,-0.180
2019-05-26-01:48:55.607367,0.263,-0.153,10.134,-5.700,-12.200,-4.400,-0.867,2.570,-0.180
2019-05-26-01:48:55.717250,0.287,-0.141,10.119,-5.200,-12.700,-4.100,-0.672,2.680,-0.305
2019-05-26-01:48:55.826834,0.287,-0.153,10.131,-6.100,-12.600,-5.100,-1.008,2.820,-0.148
2019-05-26-01:48:55.938504,0.285,-0.146,10.136,-5.700,-12.600,-4.500,-0.867,2.547,-0.320
2019-05-26-01:48:56.048226,0.297,-0.163,10.122,-6.100,-11.900,-5.300,-0.898,2.688,0.133
2019-05-26-01:48:56.158170,0.292,-0.139,10.117,-6.300,-11.800,-5.100,-1.227,2.805,-0.023
2019-05-26-01:48:56.267787,0.301,-0.141,10.126,-6.500,-12.700,-4.900,-1.375,2.633,0.008
2019-05-26-01:48:56.377294,0.285,-0.163,10.105,-5.000,-11.400,-4.000,-0.953,3.016,-0.141
2019-05-26-01:48:56.487029,0.297,-0.167,10.126,-5.400,-12.500,-5.700,-0.844,2.547,-0.203
2019-05-26-01:48:56.596794,0.292,-0.144,10.124,-6.300,-11.900,-3.300,-1.227,2.680,-0.320
2019-05-26-01:48:56.706409,0.309,-0.136,10.124,-6.300,-13.400,-5.500,-1.180,2.781,-0.094
2019-05-26-01:48:56.816127,0.280,-0.148,10.136,-6.000,-11.600,-3.800,-0.984,2.586,-0.227
2019-05-26-01:48:56.926076,0.287,-0.158,10.110,-6.700,-12.200,-3.600,-1.125,2.672,0.039
2019-05-26-01:48:57.035820,0.275,-0.158,10.153,-5.700,-11.300,-2.000,-0.852,2.977,-0.188
2019-05-26-01:48:57.145598,0.301,-0.160,10.129,-6.700,-13.000,-3.800,-0.891,2.656,-0.164
2019-05-26-01:48:57.255173,0.301,-0.141,10.114,-4.200,-13.200,-5.300,-1.133,2.867,-0.078
2019-05-26-01:48:57.365069,0.294,-0.165,10.122,-6.800,-12.200,-4.500,-1.172,2.531,0.039
2019-05-26-01:48:57.474764,0.292,-0.146,10.134,-6.400,-13.500,-6.200,-0.969,2.570,-0.250
2019-05-26-01:48:57.584463,0.285,-0.153,10.112,-6.900,-11.800,-3.900,-1.281,2.781,-0.078
2019-05-26-01:48:57.694047,0.292,-0.151,10.124,-5.900,-14.000,-4.700,-1.406,2.570,-0.117
2019-05-26-01:48:57.803644,0.287,-0.129,10.114,-5.900,-11.300,-3.800,-0.477,2.828,-0.164
2019-05-26-01:48:57.913396,0.301,-0.148,10.136,-6.900,-13.000,-4.900,-1.312,2.719,-0.234
2019-05-26-01:48:58.023241,0.290,-0.146,10.119,-6.500,-12.700,-3.100,-1.016,2.648,0.125
2019-05-26-01:48:58.133232,0.294,-0.167,10.134,-6.600,-13.400,-4.200,-1.164,2.867,-0.273
2019-05-26-01:48:58.242943,0.297,-0.163,10.126,-6.300,-12.300,-5.000,-0.719,2.508,-0.188
2019-05-26-01:48:58.352476,0.299,-0.165,10.119,-6.700,-13.600,-4.300,-0.867,2.594,-0.023
2019-05-26-01:48:58.462266,0.282,-0.153,10.136,-6.200,-11.800,-4.900,-1.008,2.672,-0.125
2019-05-26-01:48:58.572309,0.292,-0.153,10.119,-6.800,-13.100,-3.400,-0.422,2.945,0.172
2019-05-26-01:48:58.681984,0.294,-0.148,10.122,-5.200,-12.400,-4.100,-0.914,2.734,-0.078
2019-05-26-01:48:58.791602,0.306,-0.146,10.141,-6.100,-13.000,-3.800,-1.352,2.672,-0.234
2019-05-26-01:48:58.901131,0.304,-0.146,10.119,-7.200,-12.600,-5.600,-0.992,2.797,0.039
2019-05-26-01:48:59.010691,0.294,-0.160,10.138,-5.600,-13.100,-5.400,-0.844,2.719,-0.250
2019-05-26-01:48:59.120501,0.297,-0.148,10.105,-5.800,-13.000,-3.900,-1.180,2.742,-0.047
2019-05-26-01:48:59.230151,0.287,-0.148,10.105,-6.900,-12.400,-3.100,-1.070,2.531,0.109
2019-05-26-01:48:59.340071,0.287,-0.160,10.119,-6.100,-12.800,-3.600,-0.852,2.625,-0.234
2019-05-26-01:48:59.449792,0.311,-0.158,10.114,-6.400,-12.800,-3.600,-1.094,2.508,-0.164
2019-05-26-01:48:59.559548,0.301,-0.151,10.112,-7.300,-13.200,-4.700,-0.898,2.750,0.039
2019-05-26-01:48:59.669798,0.311,-0.146,10.114,-4.600,-12.800,-4.200,-1.023,2.781,-0.047
2019-05-26-01:48:59.779720,0.299,-0.165,10.119,-6.400,-12.100,-3.600,-1.383,2.625,-0.203
2019-05-26-01:48:59.889385,0.287,-0.153,10.119,-6.500,-12.800,-4.100,-0.828,2.805,-0.023
2019-05-26-01:48:59.998943,0.294,-0.151,10.136,-7.700,-11.300,-4.300,-0.984,2.539,-0.359
2019-05-26-01:49:00.108705,0.290,-0.151,10.112,-6.100,-12.900,-3.900,-0.984,2.711,-0.305
2019-05-26-01:49:00.218379,0.304,-0.153,10.124,-7.200,-12.200,-5.100,-1.258,2.656,-0.055
2019-05-26-01:49:00.327894,0.282,-0.148,10.119,-5.200,-12.400,-4.200,-0.742,2.742,-0.273
2019-05-26-01:49:00.437437,0.292,-0.153,10.112,-6.100,-11.600,-3.200,-1.188,2.812,0.242
2019-05-26-01:49:00.547386,0.292,-0.163,10.141,-6.600,-12.600,-4.500,-1.016,3.039,-0.164
2019-05-26-01:49:00.657260,0.306,-0.151,10.107,-6.200,-11.700,-2.700,-1.055,2.641,0.055
2019-05-26-01:49:00.766913,0.270,-0.151,10.117,-5.900,-13.000,-5.900,-0.836,2.875,0.039
2019-05-26-01:49:00.877137,0.280,-0.144,10.136,-6.700,-11.500,-3.200,-0.766,2.891,-0.094
2019-05-26-01:49:00.986827,0.301,-0.146,10.126,-6.700,-12.700,-4.100,-1.359,2.883,-0.031
2019-05-26-01:49:01.096686,0.297,-0.151,10.129,-6.000,-12.400,-3.600,-1.258,2.781,-0.117
2019-05-26-01:49:01.206340,0.297,-0.170,10.122,-6.300,-13.400,-3.900,-0.219,2.477,-0.273
2019-05-26-01:49:01.315950,0.278,-0.165,10.110,-6.500,-11.200,-3.200,-1.094,2.664,0.031
2019-05-26-01:49:01.425537,0.294,-0.158,10.122,-7.100,-12.000,-5.400,-0.695,2.930,-0.055
2019-05-26-01:49:01.535199,0.275,-0.163,10.117,-7.100,-10.900,-3.700,-1.070,2.672,-0.273
2019-05-26-01:49:01.644965,0.301,-0.141,10.098,-6.000,-12.100,-3.800,-0.828,2.594,-0.305
2019-05-26-01:49:01.754916,0.294,-0.141,10.138,-5.600,-13.100,-3.700,-0.984,2.719,-0.234
2019-05-26-01:49:01.864541,0.294,-0.153,10.134,-6.300,-11.700,-4.600,-0.992,2.656,0.008
2019-05-26-01:49:01.974216,0.287,-0.156,10.141,-5.800,-12.100,-4.900,-1.062,2.742,-0.094
2019-05-26-01:49:02.086540,0.273,-0.151,10.134,-6.600,-12.200,-4.200,-0.820,2.719,-0.070
2019-05-26-01:49:02.196239,0.301,-0.139,10.112,-5.900,-13.700,-5.700,-1.664,2.633,-0.117
2019-05-26-01:49:02.305766,0.290,-0.146,10.117,-6.000,-12.800,-5.800,-0.969,2.633,-0.117
2019-05-26-01:49:02.415290,0.297,-0.151,10.131,-6.600,-12.600,-3.400,-0.961,2.656,-0.094
2019-05-26-01:49:02.525002,0.297,-0.141,10.134,-6.200,-12.900,-2.300,-0.977,3.039,-0.070
2019-05-26-01:49:02.634923,0.292,-0.146,10.129,-5.000,-12.900,-3.900,-0.891,2.695,-0.258
2019-05-26-01:49:02.744579,0.299,-0.160,10.131,-5.900,-12.800,-5.500,-1.070,2.586,-0.141
2019-05-26-01:49:02.854113,0.306,-0.153,10.129,-6.300,-12.500,-3.600,-0.914,2.562,-0.203
2019-05-26-01:49:02.964181,0.306,-0.151,10.131,-6.700,-12.500,-4.600,-1.242,2.516,0.031
2019-05-26-01:49:03.074218,0.301,-0.172,10.129,-6.400,-12.500,-4.900,-0.797,2.758,-0.141
2019-05-26-01:49:03.183887,0.287,-0.144,10.136,-5.600,-13.600,-3.700,-1.281,2.625,-0.211
2019-05-26-01:49:03.293998,0.278,-0.148,10.100,-6.100,-12.000,-4.100,-0.938,2.742,-0.258
2019-05-26-01:49:03.403575,0.294,-0.151,10.131,-6.100,-12.100,-3.900,-0.992,2.930,-0.125
2019-05-26-01:49:03.513196,0.301,-0.153,10.102,-5.400,-12.000,-4.000,-1.383,2.914,-0.180
2019-05-26-01:49:03.622918,0.266,-0.141,10.138,-4.900,-13.000,-4.900,-1.453,2.797,0.172
2019-05-26-01:49:03.732522,0.297,-0.175,10.158,-6.200,-11.500,-2.800,-1.016,2.633,-0.141
2019-05-26-01:49:03.842128,0.285,-0.148,10.119,-5.300,-13.600,-5.500,-1.047,2.719,-0.070
2019-05-26-01:49:03.951642,0.304,-0.165,10.098,-5.000,-12.700,-3.400,-1.211,2.891,-0.234
2019-05-26-01:49:04.061299,0.292,-0.146,10.143,-6.200,-13.100,-5.100,-0.680,2.797,-0.273
2019-05-26-01:49:04.171297,0.290,-0.148,10.110,-6.400,-10.400,-3.300,-1.141,2.586,-0.078
2019-05-26-01:49:04.280910,0.285,-0.156,10.150,-6.300,-12.300,-3.600,-1.062,2.883,-0.008
2019-05-26-01:49:04.392700,0.280,-0.167,10.119,-6.200,-12.300,-4.400,-0.914,2.633,-0.102
2019-05-26-01:49:04.502615,0.292,-0.160,10.107,-5.900,-14.800,-4.500,-0.492,2.625,0.008
2019-05-26-01:49:04.612382,0.299,-0.160,10.134,-7.200,-12.900,-2.900,-0.852,2.594,-0.070
2019-05-26-01:49:04.722119,0.297,-0.153,10.117,-5.800,-14.200,-4.800,-0.961,2.680,-0.297
2019-05-26-01:49:04.831661,0.273,-0.151,10.114,-5.900,-14.200,-5.100,-0.898,2.539,-0.148
2019-05-26-01:49:04.941122,0.290,-0.158,10.122,-6.600,-12.500,-3.300,-1.094,2.711,-0.070
2019-05-26-01:49:05.050791,0.278,-0.148,10.153,-5.800,-13.900,-5.900,-0.672,2.820,-0.148
2019-05-26-01:49:05.160499,0.294,-0.151,10.129,-5.700,-11.500,-4.200,-0.797,2.594,-0.164
2019-05-26-01:49:05.270221,0.301,-0.151,10.107,-6.300,-12.800,-6.100,-0.766,2.422,-0.203
2019-05-26-01:49:05.380272,0.290,-0.151,10.138,-6.300,-11.900,-4.200,-0.922,3.016,-0.234
2019-05-26-01:49:05.490049,0.282,-0.167,10.155,-6.100,-13.900,-5.100,-1.016,2.828,-0.094
2019-05-26-01:49:05.599817,0.287,-0.141,10.117,-5.700,-11.700,-3.900,-1.211,2.695,-0.031
2019-05-26-01:49:05.709833,0.297,-0.160,10.119,-6.300,-12.600,-5.800,-1.070,2.508,-0.188
2019-05-26-01:49:05.819699,0.306,-0.136,10.126,-6.900,-11.400,-5.200,-0.992,2.797,-0.414
2019-05-26-01:49:05.929304,0.275,-0.148,10.136,-6.900,-13.200,-4.800,-0.828,2.828,-0.250
2019-05-26-01:49:06.038955,0.299,-0.156,10.131,-5.400,-13.000,-3.800,-0.969,2.742,-0.227
2019-05-26-01:49:06.148707,0.290,-0.151,10.117,-5.600,-13.200,-4.100,-0.781,2.680,-0.211
2019-05-26-01:49:06.258369,0.292,-0.156,10.124,-6.100,-12.200,-5.200,-1.086,2.891,-0.164
2019-05-26-01:49:06.367880,0.290,-0.146,10.131,-5.600,-12.400,-3.000,-1.156,2.547,-0.344
2019-05-26-01:49:06.477494,0.278,-0.167,10.141,-6.900,-12.800,-4.100,-0.984,2.594,-0.023
2019-05-26-01:49:06.587388,0.316,-0.146,10.129,-6.300,-12.400,-4.600,-0.938,2.500,-0.281
2019-05-26-01:49:06.697682,0.304,-0.156,10.107,-6.000,-13.200,-4.600,-0.992,2.508,-0.164
2019-05-26-01:49:06.807614,0.294,-0.151,10.126,-6.000,-12.600,-5.300,-1.352,2.734,0.039
2019-05-26-01:49:06.917565,0.292,-0.141,10.102,-5.300,-12.600,-4.300,-1.094,2.789,0.078
2019-05-26-01:49:07.027213,0.282,-0.165,10.100,-5.100,-11.700,-2.600,-1.109,2.820,-0.211
2019-05-26-01:49:07.137022,0.294,-0.151,10.131,-6.800,-11.900,-4.300,-1.227,2.594,-0.211
2019-05-26-01:49:07.246727,0.278,-0.160,10.131,-5.600,-12.600,-4.600,-1.188,2.672,-0.117
2019-05-26-01:49:07.356278,0.287,-0.163,10.134,-5.500,-12.400,-3.700,-1.336,2.656,-0.258
2019-05-26-01:49:07.465892,0.304,-0.158,10.110,-6.300,-12.500,-4.100,-1.156,2.734,-0.281
2019-05-26-01:49:07.575755,0.297,-0.160,10.150,-6.100,-11.400,-4.400,-1.039,2.648,-0.273
2019-05-26-01:49:07.685327,0.278,-0.153,10.112,-5.700,-13.600,-5.700,-0.586,2.648,0.031
2019-05-26-01:49:07.795266,0.292,-0.136,10.122,-5.800,-11.800,-3.600,-1.086,2.375,-0.273
2019-05-26-01:49:07.904844,0.292,-0.144,10.112,-4.700,-14.000,-5.700,-0.898,2.805,-0.078
2019-05-26-01:49:08.014608,0.287,-0.156,10.107,-6.400,-11.700,-2.800,-0.805,2.484,-0.273
2019-05-26-01:49:08.124554,0.282,-0.146,10.117,-5.800,-14.200,-4.000,-1.258,2.539,-0.250
2019-05-26-01:49:08.234197,0.285,-0.151,10.129,-5.800,-11.300,-3.200,-0.758,2.734,0.031
2019-05-26-01:49:08.343911,0.292,-0.141,10.126,-6.100,-13.600,-4.400,-1.266,2.625,-0.141
2019-05-26-01:49:08.453558,0.301,-0.148,10.122,-6.900,-10.800,-3.600,-0.555,2.797,-0.164
2019-05-26-01:49:08.563330,0.294,-0.148,10.134,-5.300,-13.600,-4.900,-1.266,2.742,-0.320
2019-05-26-01:49:08.672921,0.301,-0.163,10.124,-6.200,-12.000,-4.400,-1.328,2.680,-0.094
2019-05-26-01:49:08.782495,0.306,-0.160,10.129,-6.300,-14.200,-4.100,-0.852,2.789,0.062
2019-05-26-01:49:08.894791,0.292,-0.156,10.129,-5.600,-11.100,-3.100,-1.250,2.867,-0.250
2019-05-26-01:49:09.004637,0.287,-0.144,10.136,-5.800,-13.100,-4.300,-0.586,2.586,-0.047
2019-05-26-01:49:09.114420,0.287,-0.148,10.129,-7.200,-12.800,-3.300,-0.656,2.891,-0.320
2019-05-26-01:49:09.224094,0.287,-0.165,10.124,-5.600,-12.500,-5.100,-1.227,2.867,-0.188
2019-05-26-01:49:09.334158,0.294,-0.156,10.131,-6.700,-11.900,-4.900,-0.820,2.742,-0.094
2019-05-26-01:49:09.443916,0.285,-0.165,10.114,-5.100,-13.200,-4.600,-0.594,3.000,-0.023
2019-05-26-01:49:09.553550,0.297,-0.151,10.117,-5.700,-12.100,-4.400,-1.086,2.422,-0.148
2019-05-26-01:49:09.663262,0.294,-0.151,10.134,-5.300,-12.500,-3.500,-1.156,2.633,-0.258
2019-05-26-01:49:09.772845,0.273,-0.163,10.102,-4.700,-13.100,-4.700,-1.039,2.758,-0.102
2019-05-26-01:49:09.882390,0.285,-0.144,10.136,-6.000,-11.700,-4.700,-1.375,2.852,-0.367
2019-05-26-01:49:09.991977,0.287,-0.156,10.122,-5.300,-12.400,-3.800,-1.227,2.758,-0.359
2019-05-26-01:49:10.105648,0.285,-0.165,10.129,-4.800,-12.100,-4.400,-1.070,2.844,-0.070
2019-05-26-01:49:10.215321,0.287,-0.144,10.105,-6.300,-12.100,-3.800,-1.242,3.062,-0.180
2019-05-26-01:49:10.324869,0.290,-0.146,10.141,-6.800,-12.400,-4.400,-0.805,2.648,-0.258
2019-05-26-01:49:10.434404,0.282,-0.153,10.112,-5.400,-12.700,-4.800,-0.625,2.797,-0.203
2019-05-26-01:49:10.544361,0.292,-0.153,10.143,-5.300,-12.500,-3.700,-0.914,2.820,-0.094
2019-05-26-01:49:10.654151,0.299,-0.177,10.107,-5.500,-11.900,-4.900,-0.727,2.766,-0.148
2019-05-26-01:49:10.763836,0.306,-0.146,10.095,-5.500,-12.400,-4.500,-0.633,2.625,-0.344
2019-05-26-01:49:10.873367,0.290,-0.148,10.112,-6.800,-12.600,-3.500,-0.672,2.680,-0.094
2019-05-26-01:49:10.983138,0.294,-0.148,10.119,-5.400,-12.900,-4.700,-1.016,2.539,-0.250
2019-05-26-01:49:11.092970,0.280,-0.151,10.122,-4.600,-11.800,-4.100,-0.539,2.695,-0.117
2019-05-26-01:49:11.202598,0.292,-0.158,10.122,-6.500,-13.400,-5.600,-0.578,2.883,-0.078
2019-05-26-01:49:11.312488,0.290,-0.151,10.138,-5.300,-11.900,-4.500,-0.984,2.805,-0.250
2019-05-26-01:49:11.422236,0.287,-0.151,10.124,-5.000,-12.800,-5.000,-0.656,2.695,-0.297
2019-05-26-01:49:11.532003,0.290,-0.136,10.136,-6.000,-11.800,-3.700,-0.945,2.711,-0.367
2019-05-26-01:49:11.641752,0.292,-0.151,10.107,-5.900,-12.900,-4.200,-1.141,2.891,-0.070
2019-05-26-01:49:11.751760,0.299,-0.148,10.129,-6.300,-11.000,-3.200,-1.047,2.938,-0.305
2019-05-26-01:49:11.861389,0.280,-0.165,10.124,-5.900,-12.800,-4.400,-1.023,2.680,-0.102
2019-05-26-01:49:11.970934,0.292,-0.156,10.141,-5.500,-11.500,-4.300,-1.375,2.852,-0.250
2019-05-26-01:49:12.080640,0.273,-0.156,10.105,-5.900,-13.400,-6.800,-0.812,2.961,0.086
2019-05-26-01:49:12.190278,0.297,-0.148,10.124,-6.400,-11.700,-3.300,-1.453,2.586,0.039
2019-05-26-01:49:12.299873,0.297,-0.146,10.117,-5.700,-13.600,-4.800,-0.984,2.844,-0.055
2019-05-26-01:49:12.409386,0.299,-0.139,10.122,-5.900,-12.400,-4.100,-1.312,2.703,0.039
2019-05-26-01:49:12.519266,0.297,-0.165,10.119,-6.000,-12.300,-6.000,-0.891,2.758,-0.320
2019-05-26-01:49:12.629047,0.261,-0.163,10.122,-5.200,-14.200,-4.600,-1.164,2.625,-0.281
2019-05-26-01:49:12.740786,0.280,-0.146,10.129,-6.300,-12.800,-5.600,-1.258,2.586,-0.141
2019-05-26-01:49:12.850483,0.297,-0.144,10.105,-5.500,-13.500,-3.900,-1.156,2.844,-0.281
2019-05-26-01:49:12.960483,0.285,-0.153,10.146,-5.900,-13.000,-3.200,-0.922,2.797,-0.125
2019-05-26-01:49:13.070490,0.297,-0.144,10.105,-5.900,-12.300,-4.800,-1.047,2.891,-0.008
2019-05-26-01:49:13.180178,0.273,-0.146,10.117,-5.300,-11.500,-3.400,-1.023,2.797,-0.148
2019-05-26-01:49:13.289691,0.278,-0.156,10.102,-5.300,-13.200,-4.700,-1.211,2.641,0.055
2019-05-26-01:49:13.399332,0.301,-0.146,10.117,-7.100,-11.200,-5.300,-0.945,2.758,-0.367
2019-05-26-01:49:13.508959,0.280,-0.139,10.153,-6.000,-13.000,-4.100,-0.773,2.734,-0.164
2019-05-26-01:49:13.618753,0.299,-0.146,10.124,-5.300,-12.600,-3.500,-0.750,2.719,-0.188
2019-05-26-01:49:13.728760,0.304,-0.151,10.119,-6.400,-12.100,-3.200,-0.562,2.734,-0.055
2019-05-26-01:49:13.838447,0.287,-0.153,10.129,-6.600,-12.000,-4.500,-1.078,2.664,0.062
2019-05-26-01:49:13.947973,0.270,-0.163,10.117,-6.100,-12.000,-4.100,-1.188,2.859,0.086
2019-05-26-01:49:14.057618,0.290,-0.148,10.155,-6.000,-12.200,-4.500,-0.898,2.781,-0.102
2019-05-26-01:49:14.167624,0.287,-0.160,10.107,-7.200,-11.900,-5.000,-0.758,2.727,0.109
2019-05-26-01:49:14.277254,0.287,-0.148,10.143,-5.900,-12.800,-5.100,-1.156,2.680,-0.102
2019-05-26-01:49:14.386930,0.285,-0.139,10.131,-5.900,-11.400,-4.600,-0.797,2.656,-0.188
2019-05-26-01:49:14.496731,0.313,-0.148,10.110,-6.600,-12.400,-5.000,-1.016,2.477,-0.055
2019-05-26-01:49:14.607795,0.297,-0.148,10.148,-6.300,-11.700,-4.700,-0.758,2.773,0.062
2019-05-26-01:49:14.717723,0.285,-0.167,10.129,-5.700,-13.200,-4.900,-0.703,2.570,-0.273
2019-05-26-01:49:14.827354,0.299,-0.165,10.112,-5.400,-11.500,-4.200,-0.820,2.656,-0.188
2019-05-26-01:49:14.937236,0.273,-0.167,10.134,-5.500,-12.800,-4.100,-1.070,2.883,-0.055
2019-05-26-01:49:15.046910,0.290,-0.165,10.095,-5.800,-11.900,-2.200,-0.922,2.680,-0.188
2019-05-26-01:49:15.156759,0.311,-0.153,10.131,-5.500,-13.100,-4.900,-1.031,2.750,0.039
2019-05-26-01:49:15.266405,0.290,-0.160,10.112,-6.100,-11.300,-5.000,-1.094,2.539,0.148
2019-05-26-01:49:15.376506,0.292,-0.160,10.102,-5.600,-13.000,-4.900,-1.148,2.672,0.031
2019-05-26-01:49:15.486425,0.278,-0.175,10.102,-5.800,-10.600,-5.400,-1.211,2.625,0.008
2019-05-26-01:49:15.596220,0.294,-0.153,10.079,-5.200,-13.100,-3.800,-1.305,2.398,-0.148
2019-05-26-01:49:15.705793,0.292,-0.141,10.110,-5.900,-12.700,-5.800,-0.758,2.688,0.016
2019-05-26-01:49:15.815316,0.309,-0.156,10.112,-6.100,-11.800,-3.300,-1.109,2.625,-0.180
2019-05-26-01:49:15.924800,0.287,-0.151,10.143,-5.800,-13.500,-5.300,-0.602,2.523,-0.078
2019-05-26-01:49:16.034321,0.273,-0.158,10.088,-6.300,-11.300,-3.800,-0.922,2.695,-0.094
2019-05-26-01:49:16.144281,0.294,-0.151,10.146,-5.400,-12.100,-4.900,-1.141,2.828,-0.047
2019-05-26-01:49:16.254034,0.285,-0.160,10.131,-5.900,-11.800,-4.000,-0.469,2.688,0.031
2019-05-26-01:49:16.363570,0.294,-0.151,10.107,-6.700,-13.300,-5.000,-1.141,2.734,-0.188
2019-05-26-01:49:16.473273,0.306,-0.151,10.117,-6.300,-12.400,-4.700,-1.141,2.812,0.109
2019-05-26-01:49:16.583195,0.294,-0.146,10.131,-6.500,-13.500,-5.300,-1.016,2.852,-0.203
2019-05-26-01:49:16.692769,0.297,-0.167,10.126,-6.400,-12.800,-3.700,-1.023,2.680,-0.008
2019-05-26-01:49:16.802313,0.287,-0.139,10.124,-4.600,-12.700,-4.200,-1.086,2.438,-0.305
2019-05-26-01:49:16.911799,0.270,-0.170,10.124,-6.800,-12.100,-4.500,-0.828,2.953,-0.141
2019-05-26-01:49:17.021278,0.287,-0.144,10.112,-5.100,-13.000,-4.700,-0.922,2.594,-0.023
2019-05-26-01:49:17.130965,0.287,-0.156,10.146,-6.300,-11.500,-4.800,-1.125,2.734,0.078
2019-05-26-01:49:17.240542,0.287,-0.158,10.093,-5.600,-12.500,-4.900,-1.008,2.680,-0.328
2019-05-26-01:49:17.350489,0.282,-0.146,10.117,-6.000,-11.800,-4.700,-1.430,2.695,-0.164
2019-05-26-01:49:17.460317,0.294,-0.144,10.134,-5.200,-12.400,-3.700,-1.031,2.648,0.172
2019-05-26-01:49:17.570270,0.270,-0.151,10.136,-6.500,-12.700,-3.900,-0.945,2.328,-0.258
2019-05-26-01:49:17.679868,0.306,-0.148,10.112,-6.200,-11.200,-3.800,-0.844,2.828,-0.094
2019-05-26-01:49:17.789817,0.301,-0.141,10.131,-5.000,-11.900,-4.100,-0.969,2.758,-0.281
2019-05-26-01:49:17.899629,0.306,-0.136,10.124,-5.500,-12.300,-3.900,-1.047,2.812,0.016
2019-05-26-01:49:18.009443,0.292,-0.163,10.129,-5.600,-11.700,-3.600,-1.164,2.719,-0.203
2019-05-26-01:49:18.119249,0.301,-0.136,10.114,-5.300,-12.600,-4.100,-1.070,2.797,-0.070
2019-05-26-01:49:18.228857,0.280,-0.156,10.141,-6.200,-11.900,-5.200,-0.828,2.711,-0.141
2019-05-26-01:49:18.338454,0.290,-0.153,10.134,-5.800,-12.900,-4.200,-1.359,2.695,-0.227
2019-05-26-01:49:18.448021,0.294,-0.146,10.122,-5.100,-11.800,-3.500,-0.984,2.656,-0.055
2019-05-26-01:49:18.558467,0.304,-0.167,10.129,-5.300,-13.800,-4.500,-0.844,2.633,-0.125
2019-05-26-01:49:18.668167,0.290,-0.136,10.160,-6.100,-12.700,-3.900,-0.898,2.797,-0.328
2019-05-26-01:49:18.777794,0.285,-0.151,10.143,-5.200,-13.900,-4.500,-1.188,2.766,-0.461
2019-05-26-01:49:18.887330,0.273,-0.163,10.129,-6.100,-12.300,-2.700,-1.070,2.742,-0.031
2019-05-26-01:49:18.997156,0.299,-0.139,10.114,-5.300,-13.300,-6.300,-1.031,2.734,0.055
2019-05-26-01:49:19.107055,0.282,-0.134,10.136,-5.700,-11.800,-4.800,-0.945,2.617,0.055
2019-05-26-01:49:19.216760,0.285,-0.146,10.131,-5.100,-14.200,-5.100,-1.039,2.523,-0.047
2019-05-26-01:49:19.326334,0.290,-0.158,10.124,-5.400,-11.400,-4.500,-1.188,2.867,-0.148
2019-05-26-01:49:19.435964,0.282,-0.151,10.155,-5.400,-13.800,-4.300,-0.992,2.867,-0.250
2019-05-26-01:49:19.545663,0.290,-0.153,10.110,-6.200,-12.300,-3.100,-1.203,2.797,-0.297
2019-05-26-01:49:19.655381,0.290,-0.148,10.146,-5.800,-13.900,-4.200,-0.750,2.680,-0.359
2019-05-26-01:49:19.765350,0.290,-0.184,10.102,-5.100,-12.100,-4.300,-1.117,2.719,-0.141
2019-05-26-01:49:19.874949,0.294,-0.165,10.112,-4.000,-14.300,-4.600,-1.188,2.797,0.148
2019-05-26-01:49:19.984483,0.297,-0.151,10.124,-5.900,-12.700,-2.700,-1.016,2.562,-0.141
2019-05-26-01:49:20.094224,0.301,-0.146,10.095,-5.200,-12.600,-3.600,-1.094,2.648,-0.180
2019-05-26-01:49:20.204139,0.290,-0.151,10.081,-4.600,-13.700,-3.900,-0.984,2.633,-0.148
2019-05-26-01:49:20.313798,0.297,-0.153,10.129,-6.200,-12.200,-3.500,-0.805,2.750,0.086
2019-05-26-01:49:20.423336,0.294,-0.139,10.136,-4.500,-12.800,-4.300,-0.844,2.672,-0.203
2019-05-26-01:49:20.533002,0.278,-0.156,10.134,-6.000,-11.900,-4.200,-0.695,2.758,-0.227
2019-05-26-01:49:20.642788,0.297,-0.158,10.107,-5.600,-13.300,-5.200,-0.867,2.656,-0.234
2019-05-26-01:49:20.752389,0.287,-0.167,10.141,-5.800,-11.300,-4.100,-1.172,2.648,0.016
2019-05-26-01:49:20.862006,0.299,-0.141,10.146,-5.800,-11.700,-4.000,-0.992,2.742,-0.391
2019-05-26-01:49:20.972028,0.287,-0.151,10.093,-5.500,-12.400,-5.200,-0.727,2.719,-0.359
2019-05-26-01:49:21.081772,0.282,-0.158,10.091,-5.000,-12.800,-5.700,-0.828,2.578,0.016
2019-05-26-01:49:21.193297,0.280,-0.132,10.131,-5.900,-13.500,-3.500,-0.695,2.656,-0.180
2019-05-26-01:49:21.303133,0.299,-0.136,10.153,-6.500,-13.300,-3.600,-1.078,2.672,0.078
2019-05-26-01:49:21.413058,0.292,-0.136,10.102,-5.700,-12.300,-5.300,-0.820,2.570,-0.125
2019-05-26-01:49:21.522795,0.285,-0.132,10.146,-5.700,-12.900,-5.000,-1.133,2.570,-0.047
2019-05-26-01:49:21.632555,0.273,-0.129,10.124,-5.200,-13.200,-4.100,-0.773,2.797,0.062
2019-05-26-01:49:21.742217,0.280,-0.148,10.136,-4.600,-12.300,-4.000,-0.945,2.570,-0.234
2019-05-26-01:49:21.851745,0.282,-0.156,10.138,-6.300,-13.200,-4.300,-0.766,2.781,-0.328
2019-05-26-01:49:21.961245,0.292,-0.146,10.117,-6.500,-12.500,-4.200,-1.117,2.680,-0.148
2019-05-26-01:49:22.070963,0.294,-0.156,10.112,-5.400,-13.000,-4.500,-0.852,2.562,0.086
2019-05-26-01:49:22.180964,0.282,-0.172,10.110,-6.000,-12.200,-4.000,-1.312,2.703,0.055
2019-05-26-01:49:22.290600,0.335,-0.177,10.110,-5.200,-13.200,-3.800,-1.242,2.945,0.055
2019-05-26-01:49:22.400205,0.297,-0.139,10.114,-5.700,-11.900,-4.400,-1.266,2.648,0.008
2019-05-26-01:49:22.509806,0.280,-0.153,10.155,-4.600,-13.400,-3.700,-1.109,2.797,-0.305
2019-05-26-01:49:22.619753,0.292,-0.160,10.100,-4.500,-13.000,-4.400,-0.898,2.633,-0.188
2019-05-26-01:49:22.729533,0.275,-0.179,10.107,-6.400,-11.600,-3.200,-0.914,2.570,-0.188
2019-05-26-01:49:22.839107,0.306,-0.148,10.153,-5.300,-13.800,-4.700,-1.234,2.648,-0.234
2019-05-26-01:49:22.948704,0.306,-0.163,10.150,-5.900,-11.600,-4.100,-0.922,2.820,-0.211
2019-05-26-01:49:23.058815,0.290,-0.141,10.119,-6.000,-13.800,-5.200,-0.938,2.539,-0.328
2019-05-26-01:49:23.168667,0.301,-0.151,10.129,-6.900,-10.900,-4.000,-1.094,2.883,-0.125
2019-05-26-01:49:23.278264,0.275,-0.156,10.105,-4.900,-13.300,-4.500,-1.008,2.625,-0.055
2019-05-26-01:49:23.388229,0.299,-0.136,10.091,-5.300,-11.300,-3.900,-1.180,2.648,-0.070
2019-05-26-01:49:23.497909,0.282,-0.139,10.122,-6.600,-13.400,-4.700,-0.898,2.539,-0.023
2019-05-26-01:49:23.607817,0.304,-0.132,10.100,-6.100,-11.400,-4.400,-0.984,2.734,-0.180
2019-05-26-01:49:23.717442,0.280,-0.151,10.155,-5.700,-13.000,-5.100,-0.695,2.586,-0.164
2019-05-26-01:49:23.827423,0.292,-0.163,10.146,-6.000,-11.800,-3.500,-1.180,2.938,-0.180
2019-05-26-01:49:23.936968,0.301,-0.151,10.112,-5.000,-13.700,-3.800,-1.266,2.711,-0.227
2019-05-26-01:49:24.046517,0.294,-0.182,10.098,-5.700,-11.300,-4.100,-0.914,2.562,-0.164
2019-05-26-01:49:24.156521,0.299,-0.141,10.136,-5.600,-12.200,-4.400,-1.188,2.539,-0.188
2019-05-26-01:49:24.266340,0.304,-0.141,10.112,-6.100,-11.900,-4.300,-1.023,2.695,-0.148
2019-05-26-01:49:24.376082,0.287,-0.175,10.110,-5.200,-12.700,-4.500,-0.648,2.680,-0.328
2019-05-26-01:49:24.485829,0.292,-0.163,10.100,-5.600,-11.700,-3.500,-1.281,2.805,-0.094
2019-05-26-01:49:24.595891,0.294,-0.160,10.122,-5.700,-12.700,-5.600,-1.141,2.758,-0.148
2019-05-26-01:49:24.705618,0.287,-0.148,10.112,-5.100,-12.600,-3.200,-0.828,2.664,0.062
2019-05-26-01:49:24.815238,0.275,-0.148,10.112,-5.700,-12.100,-3.000,-0.828,2.523,-0.281
2019-05-26-01:49:24.924757,0.287,-0.146,10.124,-5.100,-12.700,-5.200,-1.250,2.805,-0.344
2019-05-26-01:49:25.034587,0.299,-0.144,10.122,-5.900,-12.800,-3.100,-0.828,2.609,-0.023
2019-05-26-01:49:25.144350,0.292,-0.144,10.124,-5.100,-12.900,-3.700,-0.969,2.680,-0.117
2019-05-26-01:49:25.254082,0.287,-0.151,10.143,-5.200,-13.400,-4.300,-0.992,2.695,-0.281
2019-05-26-01:49:25.363607,0.270,-0.156,10.105,-6.100,-13.100,-3.600,-1.203,2.648,-0.078
2019-05-26-01:49:25.473257,0.275,-0.144,10.150,-4.400,-12.900,-4.800,-0.727,2.758,-0.344
2019-05-26-01:49:25.582899,0.299,-0.146,10.114,-5.700,-12.800,-4.000,-1.156,2.758,-0.094
2019-05-26-01:49:25.692405,0.297,-0.160,10.112,-6.500,-13.800,-6.200,-1.156,2.547,0.008
2019-05-26-01:49:25.802336,0.304,-0.165,10.117,-6.100,-12.600,-4.100,-1.070,2.742,-0.078
2019-05-26-01:49:25.912000,0.280,-0.153,10.093,-4.900,-13.000,-4.600,-1.039,2.609,-0.023
2019-05-26-01:49:26.021546,0.282,-0.146,10.126,-6.100,-12.000,-4.800,-0.898,2.719,-0.094
2019-05-26-01:49:26.131409,0.297,-0.156,10.146,-3.800,-13.700,-4.000,-0.914,2.547,-0.148
2019-05-26-01:49:26.241421,0.301,-0.146,10.112,-5.500,-12.000,-4.000,-1.094,2.734,-0.055
2019-05-26-01:49:26.351157,0.268,-0.165,10.148,-6.200,-14.500,-4.100,-0.703,2.891,-0.180
2019-05-26-01:49:26.460935,0.285,-0.156,10.110,-6.800,-11.500,-3.600,-1.117,2.695,-0.008
2019-05-26-01:49:26.570723,0.287,-0.163,10.158,-5.000,-13.400,-4.500,-1.328,2.625,-0.094
2019-05-26-01:49:26.680429,0.297,-0.148,10.098,-6.300,-11.400,-4.100,-1.016,2.812,0.039
2019-05-26-01:49:26.790026,0.294,-0.139,10.122,-5.800,-13.200,-3.300,-0.867,2.680,-0.047
2019-05-26-01:49:26.899589,0.282,-0.151,10.153,-5.700,-12.900,-2.700,-0.852,2.844,-0.047
2019-05-26-01:49:27.009549,0.273,-0.151,10.138,-5.700,-13.700,-4.600,-0.938,2.805,-0.055
2019-05-26-01:49:27.119340,0.301,-0.132,10.143,-6.000,-13.100,-4.900,-1.062,2.352,-0.055
2019-05-26-01:49:27.228958,0.299,-0.153,10.153,-6.000,-13.000,-4.000,-1.062,2.648,-0.164
2019-05-26-01:49:27.341341,0.318,-0.139,10.158,-5.700,-13.100,-5.400,-0.891,2.656,-0.164
2019-05-26-01:49:27.451040,0.285,-0.156,10.119,-6.200,-13.300,-4.500,-1.164,2.906,0.125
2019-05-26-01:49:27.560710,0.287,-0.153,10.143,-6.400,-12.500,-3.300,-1.188,2.609,-0.078
2019-05-26-01:49:27.670434,0.290,-0.153,10.129,-6.000,-12.500,-3.500,-1.086,2.570,-0.117
2019-05-26-01:49:27.780023,0.285,-0.184,10.079,-5.700,-13.800,-5.500,-1.695,2.734,-0.031
2019-05-26-01:49:27.889564,0.297,-0.151,10.126,-5.500,-12.200,-4.200,-0.859,2.820,0.031
2019-05-26-01:49:27.999587,0.292,-0.122,10.158,-6.300,-12.700,-5.000,-0.773,2.797,-0.141
2019-05-26-01:49:28.109421,0.278,-0.141,10.122,-5.900,-11.800,-4.000,-0.898,2.844,0.133
2019-05-26-01:49:28.219310,0.287,-0.124,10.146,-5.900,-13.100,-4.600,-0.867,2.711,-0.164
2019-05-26-01:49:28.328901,0.292,-0.156,10.105,-6.100,-12.000,-3.500,-0.867,2.797,-0.250
2019-05-26-01:49:28.438527,0.301,-0.156,10.117,-5.500,-12.600,-4.700,-0.938,2.539,-0.180
2019-05-26-01:49:28.548553,0.287,-0.165,10.141,-6.100,-12.800,-5.500,-0.891,2.758,-0.031
2019-05-26-01:49:28.658596,0.290,-0.182,10.119,-4.500,-13.500,-5.500,-1.172,2.984,0.078
2019-05-26-01:49:28.768460,0.278,-0.160,10.110,-4.900,-12.600,-5.200,-1.383,2.680,-0.094
2019-05-26-01:49:28.878049,0.287,-0.158,10.114,-6.200,-12.800,-3.000,-1.156,2.695,-0.031
2019-05-26-01:49:28.987717,0.287,-0.170,10.098,-5.500,-13.000,-4.100,-1.117,2.672,0.086
2019-05-26-01:49:29.097515,0.275,-0.144,10.126,-5.400,-13.000,-4.500,-1.102,2.758,0.062
2019-05-26-01:49:29.207126,0.290,-0.124,10.158,-5.900,-13.700,-5.500,-0.742,2.477,-0.344
2019-05-26-01:49:29.316712,0.273,-0.153,10.122,-5.600,-13.000,-4.200,-0.945,2.508,-0.055
2019-05-26-01:49:29.426665,0.304,-0.153,10.088,-5.600,-12.900,-5.500,-1.188,2.695,-0.125
2019-05-26-01:49:29.538507,0.299,-0.148,10.136,-6.400,-13.000,-3.900,-0.922,2.914,-0.250
2019-05-26-01:49:29.648423,0.278,-0.163,10.148,-5.600,-13.100,-5.100,-1.031,2.961,0.078
2019-05-26-01:49:29.758441,0.282,-0.151,10.122,-6.200,-13.300,-4.300,-0.852,2.922,0.086
2019-05-26-01:49:29.868062,0.294,-0.144,10.117,-4.700,-13.400,-5.400,-1.203,2.820,0.078
2019-05-26-01:49:29.977670,0.285,-0.144,10.141,-5.800,-12.000,-4.600,-0.820,2.734,-0.023
